##NAMES=Adelite
##RRUFFID=R140962
##IDEAL CHEMISTRY=CaMgAs^5+^O_4_(OH)
##LOCALITY=Sterling Hill, Ogdensburg, Franklin Mining District, Sussex County, New Jersey, USA
##OWNER=RRUFF
##SOURCE=Marcus Origlieri
##DESCRIPTION=Massive aggregate of smokey orange granular crystals, associated with red zincite and black franklinite
##STATUS=The identification of this mineral has been confirmed by single-crystal X-ray diffraction.
##URL=rruff.info/R140962
8.806445e+001, 1.012964e+003
8.854657e+001, 9.913698e+002
8.902869e+001, 9.839147e+002
8.951080e+001, 9.974907e+002
8.999292e+001, 1.022077e+003
9.047504e+001, 1.048896e+003
9.095715e+001, 1.076474e+003
9.143927e+001, 1.103115e+003
9.192139e+001, 1.126242e+003
9.240350e+001, 1.145984e+003
9.288562e+001, 1.164828e+003
9.336774e+001, 1.175774e+003
9.384985e+001, 1.171428e+003
9.433197e+001, 1.152969e+003
9.481409e+001, 1.137922e+003
9.529620e+001, 1.120302e+003
9.577832e+001, 1.101999e+003
9.626044e+001, 1.083430e+003
9.674255e+001, 1.066010e+003
9.722467e+001, 1.051109e+003
9.770679e+001, 1.038510e+003
9.818890e+001, 1.027952e+003
9.867102e+001, 1.020101e+003
9.915314e+001, 1.013154e+003
9.963525e+001, 1.005439e+003
1.001174e+002, 9.961221e+002
1.005995e+002, 9.858107e+002
1.010816e+002, 9.767680e+002
1.015637e+002, 9.690117e+002
1.020458e+002, 9.624047e+002
1.025280e+002, 9.569753e+002
1.030101e+002, 9.524029e+002
1.034922e+002, 9.481804e+002
1.039743e+002, 9.439008e+002
1.044564e+002, 9.395272e+002
1.049385e+002, 9.367610e+002
1.054207e+002, 9.367149e+002
1.059028e+002, 9.367841e+002
1.063849e+002, 9.357361e+002
1.068670e+002, 9.334683e+002
1.073491e+002, 9.302999e+002
1.078312e+002, 9.260082e+002
1.083134e+002, 9.207077e+002
1.087955e+002, 9.166617e+002
1.092776e+002, 9.149381e+002
1.097597e+002, 9.143829e+002
1.102418e+002, 9.133764e+002
1.107239e+002, 9.116420e+002
1.112061e+002, 9.095410e+002
1.116882e+002, 9.072379e+002
1.121703e+002, 9.047879e+002
1.126524e+002, 9.025931e+002
1.131345e+002, 9.014296e+002
1.136166e+002, 9.011575e+002
1.140988e+002, 8.994058e+002
1.145809e+002, 8.943726e+002
1.150630e+002, 8.889323e+002
1.155451e+002, 8.845804e+002
1.160272e+002, 8.814061e+002
1.165093e+002, 8.787801e+002
1.169915e+002, 8.759783e+002
1.174736e+002, 8.729683e+002
1.179557e+002, 8.698259e+002
1.184378e+002, 8.660355e+002
1.189199e+002, 8.624322e+002
1.194020e+002, 8.596365e+002
1.198842e+002, 8.578389e+002
1.203663e+002, 8.567479e+002
1.208484e+002, 8.557001e+002
1.213305e+002, 8.545527e+002
1.218126e+002, 8.536172e+002
1.222947e+002, 8.536708e+002
1.227769e+002, 8.537592e+002
1.232590e+002, 8.524490e+002
1.237411e+002, 8.488411e+002
1.242232e+002, 8.436075e+002
1.247053e+002, 8.398240e+002
1.251874e+002, 8.381921e+002
1.256696e+002, 8.368691e+002
1.261517e+002, 8.351732e+002
1.266338e+002, 8.332112e+002
1.271159e+002, 8.313895e+002
1.275980e+002, 8.300019e+002
1.280801e+002, 8.289767e+002
1.285623e+002, 8.279418e+002
1.290444e+002, 8.270258e+002
1.295265e+002, 8.260040e+002
1.300086e+002, 8.246136e+002
1.304907e+002, 8.228132e+002
1.309728e+002, 8.208725e+002
1.314550e+002, 8.190601e+002
1.319371e+002, 8.172057e+002
1.324192e+002, 8.149744e+002
1.329013e+002, 8.115991e+002
1.333834e+002, 8.078481e+002
1.338655e+002, 8.062374e+002
1.343477e+002, 8.083904e+002
1.348298e+002, 8.104024e+002
1.353119e+002, 8.106788e+002
1.357940e+002, 8.096595e+002
1.362761e+002, 8.081752e+002
1.367582e+002, 8.067469e+002
1.372404e+002, 8.053842e+002
1.377225e+002, 8.040948e+002
1.382046e+002, 8.029792e+002
1.386867e+002, 8.018710e+002
1.391688e+002, 8.009495e+002
1.396509e+002, 8.000568e+002
1.401331e+002, 7.987272e+002
1.406152e+002, 7.962818e+002
1.410973e+002, 7.919709e+002
1.415794e+002, 7.894910e+002
1.420615e+002, 7.902050e+002
1.425436e+002, 7.913439e+002
1.430258e+002, 7.909843e+002
1.435079e+002, 7.888859e+002
1.439900e+002, 7.864203e+002
1.444721e+002, 7.855037e+002
1.449542e+002, 7.870357e+002
1.454363e+002, 7.878817e+002
1.459185e+002, 7.874619e+002
1.464006e+002, 7.864817e+002
1.468827e+002, 7.857932e+002
1.473648e+002, 7.856764e+002
1.478469e+002, 7.857076e+002
1.483290e+002, 7.850039e+002
1.488112e+002, 7.834454e+002
1.492933e+002, 7.822598e+002
1.497754e+002, 7.824406e+002
1.502575e+002, 7.834172e+002
1.507396e+002, 7.834916e+002
1.512217e+002, 7.820244e+002
1.517039e+002, 7.795042e+002
1.521860e+002, 7.765416e+002
1.526681e+002, 7.730256e+002
1.531502e+002, 7.698555e+002
1.536323e+002, 7.680081e+002
1.541144e+002, 7.675516e+002
1.545966e+002, 7.666773e+002
1.550787e+002, 7.643750e+002
1.555608e+002, 7.617667e+002
1.560429e+002, 7.594467e+002
1.565250e+002, 7.575125e+002
1.570071e+002, 7.561688e+002
1.574893e+002, 7.557449e+002
1.579714e+002, 7.564270e+002
1.584535e+002, 7.576007e+002
1.589356e+002, 7.597454e+002
1.594177e+002, 7.619484e+002
1.598998e+002, 7.635670e+002
1.603820e+002, 7.643484e+002
1.608641e+002, 7.643680e+002
1.613462e+002, 7.637152e+002
1.618283e+002, 7.614238e+002
1.623104e+002, 7.598229e+002
1.627925e+002, 7.590047e+002
1.632747e+002, 7.589678e+002
1.637568e+002, 7.598400e+002
1.642389e+002, 7.617008e+002
1.647210e+002, 7.642970e+002
1.652031e+002, 7.665615e+002
1.656852e+002, 7.686766e+002
1.661674e+002, 7.702764e+002
1.666495e+002, 7.712383e+002
1.671316e+002, 7.716524e+002
1.676137e+002, 7.717211e+002
1.680958e+002, 7.716132e+002
1.685779e+002, 7.711993e+002
1.690601e+002, 7.696695e+002
1.695422e+002, 7.664338e+002
1.700243e+002, 7.629644e+002
1.705064e+002, 7.596870e+002
1.709885e+002, 7.566205e+002
1.714706e+002, 7.537236e+002
1.719528e+002, 7.508665e+002
1.724349e+002, 7.482369e+002
1.729170e+002, 7.463093e+002
1.733991e+002, 7.457019e+002
1.738812e+002, 7.452859e+002
1.743633e+002, 7.441302e+002
1.748455e+002, 7.422147e+002
1.753276e+002, 7.402190e+002
1.758097e+002, 7.381702e+002
1.762918e+002, 7.364240e+002
1.767739e+002, 7.357224e+002
1.772560e+002, 7.369968e+002
1.777382e+002, 7.388445e+002
1.782203e+002, 7.390695e+002
1.787024e+002, 7.371328e+002
1.791845e+002, 7.353701e+002
1.796666e+002, 7.352200e+002
1.801487e+002, 7.359318e+002
1.806309e+002, 7.366483e+002
1.811130e+002, 7.370983e+002
1.815951e+002, 7.372687e+002
1.820772e+002, 7.370604e+002
1.825593e+002, 7.361409e+002
1.830414e+002, 7.353924e+002
1.835236e+002, 7.350956e+002
1.840057e+002, 7.351335e+002
1.844878e+002, 7.353961e+002
1.849699e+002, 7.359108e+002
1.854520e+002, 7.365707e+002
1.859341e+002, 7.366871e+002
1.864163e+002, 7.357831e+002
1.868984e+002, 7.348055e+002
1.873805e+002, 7.338347e+002
1.878626e+002, 7.329534e+002
1.883447e+002, 7.322443e+002
1.888268e+002, 7.317462e+002
1.893090e+002, 7.314660e+002
1.897911e+002, 7.315732e+002
1.902732e+002, 7.329372e+002
1.907553e+002, 7.338184e+002
1.912374e+002, 7.334875e+002
1.917195e+002, 7.322689e+002
1.922017e+002, 7.308988e+002
1.926838e+002, 7.299023e+002
1.931659e+002, 7.292712e+002
1.936480e+002, 7.291520e+002
1.941301e+002, 7.300015e+002
1.946122e+002, 7.308026e+002
1.950944e+002, 7.312615e+002
1.955765e+002, 7.313185e+002
1.960586e+002, 7.308716e+002
1.965407e+002, 7.297068e+002
1.970228e+002, 7.277929e+002
1.975049e+002, 7.265828e+002
1.979871e+002, 7.263281e+002
1.984692e+002, 7.264669e+002
1.989513e+002, 7.267565e+002
1.994334e+002, 7.271560e+002
1.999155e+002, 7.276124e+002
2.003976e+002, 7.281710e+002
2.008798e+002, 7.287723e+002
2.013619e+002, 7.289766e+002
2.018440e+002, 7.284042e+002
2.023261e+002, 7.276571e+002
2.028082e+002, 7.273796e+002
2.032903e+002, 7.276320e+002
2.037725e+002, 7.277640e+002
2.042546e+002, 7.271773e+002
2.047367e+002, 7.260604e+002
2.052188e+002, 7.249349e+002
2.057009e+002, 7.235917e+002
2.061830e+002, 7.224186e+002
2.066652e+002, 7.221693e+002
2.071473e+002, 7.231356e+002
2.076294e+002, 7.239139e+002
2.081115e+002, 7.227889e+002
2.085936e+002, 7.209062e+002
2.090757e+002, 7.201639e+002
2.095579e+002, 7.219980e+002
2.100400e+002, 7.251021e+002
2.105221e+002, 7.268551e+002
2.110042e+002, 7.269453e+002
2.114863e+002, 7.263021e+002
2.119685e+002, 7.248854e+002
2.124506e+002, 7.231996e+002
2.129327e+002, 7.220275e+002
2.134148e+002, 7.218729e+002
2.138969e+002, 7.224148e+002
2.143790e+002, 7.226282e+002
2.148612e+002, 7.221874e+002
2.153433e+002, 7.219652e+002
2.158254e+002, 7.225328e+002
2.163075e+002, 7.234157e+002
2.167896e+002, 7.239650e+002
2.172717e+002, 7.238005e+002
2.177539e+002, 7.230417e+002
2.182360e+002, 7.222019e+002
2.187181e+002, 7.211331e+002
2.192002e+002, 7.201903e+002
2.196823e+002, 7.197740e+002
2.201644e+002, 7.194672e+002
2.206466e+002, 7.186360e+002
2.211287e+002, 7.168491e+002
2.216108e+002, 7.143182e+002
2.220929e+002, 7.122650e+002
2.225750e+002, 7.108098e+002
2.230571e+002, 7.097823e+002
2.235393e+002, 7.094662e+002
2.240214e+002, 7.095071e+002
2.245035e+002, 7.094094e+002
2.249856e+002, 7.088676e+002
2.254677e+002, 7.079708e+002
2.259498e+002, 7.072857e+002
2.264320e+002, 7.071004e+002
2.269141e+002, 7.068201e+002
2.273962e+002, 7.062414e+002
2.278783e+002, 7.055215e+002
2.283604e+002, 7.049836e+002
2.288425e+002, 7.048518e+002
2.293247e+002, 7.049609e+002
2.298068e+002, 7.043250e+002
2.302889e+002, 7.022930e+002
2.307710e+002, 7.003185e+002
2.312531e+002, 6.986630e+002
2.317352e+002, 6.972650e+002
2.322174e+002, 6.959586e+002
2.326995e+002, 6.946360e+002
2.331816e+002, 6.933713e+002
2.336637e+002, 6.925338e+002
2.341458e+002, 6.922656e+002
2.346279e+002, 6.921569e+002
2.351101e+002, 6.925081e+002
2.355922e+002, 6.929344e+002
2.360743e+002, 6.925547e+002
2.365564e+002, 6.908111e+002
2.370385e+002, 6.882113e+002
2.375206e+002, 6.864768e+002
2.380028e+002, 6.859669e+002
2.384849e+002, 6.855261e+002
2.389670e+002, 6.846636e+002
2.394491e+002, 6.835905e+002
2.399312e+002, 6.827869e+002
2.404133e+002, 6.824969e+002
2.408955e+002, 6.825527e+002
2.413776e+002, 6.825482e+002
2.418597e+002, 6.823815e+002
2.423418e+002, 6.823983e+002
2.428239e+002, 6.828074e+002
2.433060e+002, 6.835187e+002
2.437882e+002, 6.843964e+002
2.442703e+002, 6.856180e+002
2.447524e+002, 6.866302e+002
2.452345e+002, 6.864673e+002
2.457166e+002, 6.849601e+002
2.461987e+002, 6.833699e+002
2.466809e+002, 6.822405e+002
2.471630e+002, 6.815071e+002
2.476451e+002, 6.809689e+002
2.481272e+002, 6.806290e+002
2.486093e+002, 6.804056e+002
2.490914e+002, 6.803219e+002
2.495736e+002, 6.804013e+002
2.500557e+002, 6.801312e+002
2.505378e+002, 6.787462e+002
2.510199e+002, 6.766451e+002
2.515020e+002, 6.755372e+002
2.519841e+002, 6.761293e+002
2.524663e+002, 6.773051e+002
2.529484e+002, 6.781599e+002
2.534305e+002, 6.786959e+002
2.539126e+002, 6.789194e+002
2.543947e+002, 6.786388e+002
2.548768e+002, 6.779865e+002
2.553590e+002, 6.775957e+002
2.558411e+002, 6.775900e+002
2.563232e+002, 6.778066e+002
2.568053e+002, 6.783498e+002
2.572874e+002, 6.790597e+002
2.577695e+002, 6.793558e+002
2.582516e+002, 6.786215e+002
2.587338e+002, 6.770745e+002
2.592159e+002, 6.759136e+002
2.596980e+002, 6.752617e+002
2.601801e+002, 6.748994e+002
2.606622e+002, 6.747657e+002
2.611443e+002, 6.747867e+002
2.616265e+002, 6.747956e+002
2.621086e+002, 6.746432e+002
2.625907e+002, 6.743925e+002
2.630728e+002, 6.743734e+002
2.635549e+002, 6.748191e+002
2.640370e+002, 6.751295e+002
2.645192e+002, 6.750834e+002
2.650013e+002, 6.747578e+002
2.654834e+002, 6.742604e+002
2.659655e+002, 6.735964e+002
2.664476e+002, 6.728355e+002
2.669297e+002, 6.721967e+002
2.674119e+002, 6.716213e+002
2.678940e+002, 6.713044e+002
2.683761e+002, 6.713605e+002
2.688582e+002, 6.716453e+002
2.693403e+002, 6.720441e+002
2.698224e+002, 6.725518e+002
2.703046e+002, 6.730179e+002
2.707867e+002, 6.729820e+002
2.712688e+002, 6.721205e+002
2.717509e+002, 6.713182e+002
2.722330e+002, 6.706308e+002
2.727151e+002, 6.701414e+002
2.731973e+002, 6.699826e+002
2.736794e+002, 6.702155e+002
2.741615e+002, 6.706513e+002
2.746436e+002, 6.708519e+002
2.751257e+002, 6.705079e+002
2.756078e+002, 6.705497e+002
2.760900e+002, 6.716500e+002
2.765721e+002, 6.727867e+002
2.770542e+002, 6.729290e+002
2.775363e+002, 6.718283e+002
2.780184e+002, 6.702932e+002
2.785005e+002, 6.697292e+002
2.789827e+002, 6.706630e+002
2.794648e+002, 6.714231e+002
2.799469e+002, 6.717672e+002
2.804290e+002, 6.720491e+002
2.809111e+002, 6.725912e+002
2.813932e+002, 6.734060e+002
2.818754e+002, 6.741769e+002
2.823575e+002, 6.745002e+002
2.828396e+002, 6.743152e+002
2.833217e+002, 6.738269e+002
2.838038e+002, 6.725021e+002
2.842859e+002, 6.713525e+002
2.847681e+002, 6.708932e+002
2.852502e+002, 6.711594e+002
2.857323e+002, 6.719522e+002
2.862144e+002, 6.731772e+002
2.866965e+002, 6.750174e+002
2.871786e+002, 6.762162e+002
2.876608e+002, 6.765866e+002
2.881429e+002, 6.765661e+002
2.886250e+002, 6.761968e+002
2.891071e+002, 6.755641e+002
2.895892e+002, 6.747809e+002
2.900714e+002, 6.738904e+002
2.905535e+002, 6.728898e+002
2.910356e+002, 6.722859e+002
2.915177e+002, 6.722734e+002
2.919998e+002, 6.724553e+002
2.924819e+002, 6.728830e+002
2.929641e+002, 6.734220e+002
2.934462e+002, 6.737923e+002
2.939283e+002, 6.737711e+002
2.944104e+002, 6.734941e+002
2.948925e+002, 6.738973e+002
2.953746e+002, 6.763676e+002
2.958568e+002, 6.779793e+002
2.963389e+002, 6.776031e+002
2.968210e+002, 6.763126e+002
2.973031e+002, 6.756299e+002
2.977852e+002, 6.762942e+002
2.982673e+002, 6.778284e+002
2.987495e+002, 6.788083e+002
2.992316e+002, 6.786826e+002
2.997137e+002, 6.786443e+002
3.001958e+002, 6.786955e+002
3.006779e+002, 6.788719e+002
3.011600e+002, 6.790616e+002
3.016422e+002, 6.792614e+002
3.021243e+002, 6.798173e+002
3.026064e+002, 6.814876e+002
3.030885e+002, 6.859977e+002
3.035706e+002, 6.884529e+002
3.040527e+002, 6.876922e+002
3.045349e+002, 6.858480e+002
3.050170e+002, 6.841702e+002
3.054991e+002, 6.830363e+002
3.059812e+002, 6.825272e+002
3.064633e+002, 6.828275e+002
3.069454e+002, 6.843015e+002
3.074276e+002, 6.853303e+002
3.079097e+002, 6.853929e+002
3.083918e+002, 6.855304e+002
3.088739e+002, 6.866245e+002
3.093560e+002, 6.884543e+002
3.098381e+002, 6.899012e+002
3.103203e+002, 6.898511e+002
3.108024e+002, 6.881278e+002
3.112845e+002, 6.877800e+002
3.117666e+002, 6.899053e+002
3.122487e+002, 6.920691e+002
3.127308e+002, 6.933419e+002
3.132130e+002, 6.939934e+002
3.136951e+002, 6.947496e+002
3.141772e+002, 6.960899e+002
3.146593e+002, 6.979134e+002
3.151414e+002, 6.994846e+002
3.156235e+002, 7.006024e+002
3.161057e+002, 7.017004e+002
3.165878e+002, 7.027488e+002
3.170699e+002, 7.038405e+002
3.175520e+002, 7.051413e+002
3.180341e+002, 7.067247e+002
3.185162e+002, 7.084451e+002
3.189984e+002, 7.098994e+002
3.194805e+002, 7.103602e+002
3.199626e+002, 7.115449e+002
3.204447e+002, 7.141336e+002
3.209268e+002, 7.170839e+002
3.214089e+002, 7.192590e+002
3.218911e+002, 7.204304e+002
3.223732e+002, 7.214626e+002
3.228553e+002, 7.236757e+002
3.233374e+002, 7.276244e+002
3.238195e+002, 7.314485e+002
3.243016e+002, 7.349388e+002
3.247838e+002, 7.384619e+002
3.252659e+002, 7.423107e+002
3.257480e+002, 7.464581e+002
3.262301e+002, 7.505389e+002
3.267122e+002, 7.541724e+002
3.271943e+002, 7.572272e+002
3.276765e+002, 7.608047e+002
3.281586e+002, 7.656655e+002
3.286407e+002, 7.701935e+002
3.291228e+002, 7.734454e+002
3.296049e+002, 7.758724e+002
3.300870e+002, 7.786984e+002
3.305692e+002, 7.828604e+002
3.310513e+002, 7.880334e+002
3.315334e+002, 7.916439e+002
3.320155e+002, 7.932987e+002
3.324976e+002, 7.937238e+002
3.329797e+002, 7.928431e+002
3.334619e+002, 7.908371e+002
3.339440e+002, 7.878123e+002
3.344261e+002, 7.838115e+002
3.349082e+002, 7.790615e+002
3.353904e+002, 7.739364e+002
3.358725e+002, 7.673186e+002
3.363546e+002, 7.622438e+002
3.368367e+002, 7.597415e+002
3.373188e+002, 7.580943e+002
3.378009e+002, 7.558781e+002
3.382831e+002, 7.528186e+002
3.387652e+002, 7.496403e+002
3.392473e+002, 7.472722e+002
3.397294e+002, 7.457010e+002
3.402115e+002, 7.450391e+002
3.406936e+002, 7.460255e+002
3.411758e+002, 7.471307e+002
3.416579e+002, 7.474158e+002
3.421400e+002, 7.470701e+002
3.426221e+002, 7.469337e+002
3.431042e+002, 7.477055e+002
3.435863e+002, 7.493821e+002
3.440685e+002, 7.514811e+002
3.445506e+002, 7.547725e+002
3.450327e+002, 7.576946e+002
3.455148e+002, 7.595150e+002
3.459969e+002, 7.608008e+002
3.464790e+002, 7.624015e+002
3.469612e+002, 7.647799e+002
3.474433e+002, 7.678127e+002
3.479254e+002, 7.712464e+002
3.484075e+002, 7.755343e+002
3.488896e+002, 7.794293e+002
3.493717e+002, 7.823648e+002
3.498539e+002, 7.850715e+002
3.503360e+002, 7.884168e+002
3.508181e+002, 7.925897e+002
3.513002e+002, 7.968066e+002
3.517823e+002, 7.999275e+002
3.522644e+002, 8.018043e+002
3.527466e+002, 8.030377e+002
3.532287e+002, 8.035313e+002
3.537108e+002, 8.035251e+002
3.541929e+002, 8.031188e+002
3.546750e+002, 8.023154e+002
3.551571e+002, 8.010477e+002
3.556393e+002, 7.991251e+002
3.561214e+002, 7.965478e+002
3.566035e+002, 7.942115e+002
3.570856e+002, 7.920052e+002
3.575677e+002, 7.902473e+002
3.580498e+002, 7.895882e+002
3.585320e+002, 7.893533e+002
3.590141e+002, 7.883531e+002
3.594962e+002, 7.858234e+002
3.599783e+002, 7.823135e+002
3.604604e+002, 7.791935e+002
3.609425e+002, 7.762753e+002
3.614247e+002, 7.742064e+002
3.619068e+002, 7.738181e+002
3.623889e+002, 7.739518e+002
3.628710e+002, 7.736770e+002
3.633531e+002, 7.727465e+002
3.638352e+002, 7.712766e+002
3.643174e+002, 7.692402e+002
3.647995e+002, 7.665604e+002
3.652816e+002, 7.640198e+002
3.657637e+002, 7.614893e+002
3.662458e+002, 7.594110e+002
3.667279e+002, 7.585094e+002
3.672101e+002, 7.585429e+002
3.676922e+002, 7.580557e+002
3.681743e+002, 7.558271e+002
3.686564e+002, 7.521754e+002
3.691385e+002, 7.485019e+002
3.696206e+002, 7.446323e+002
3.701028e+002, 7.411319e+002
3.705849e+002, 7.382390e+002
3.710670e+002, 7.359180e+002
3.715491e+002, 7.342726e+002
3.720312e+002, 7.337080e+002
3.725133e+002, 7.334362e+002
3.729955e+002, 7.321884e+002
3.734776e+002, 7.298502e+002
3.739597e+002, 7.276696e+002
3.744418e+002, 7.262621e+002
3.749239e+002, 7.252360e+002
3.754060e+002, 7.241132e+002
3.758882e+002, 7.228459e+002
3.763703e+002, 7.215247e+002
3.768524e+002, 7.201158e+002
3.773345e+002, 7.186782e+002
3.778166e+002, 7.174477e+002
3.782987e+002, 7.164941e+002
3.787809e+002, 7.157385e+002
3.792630e+002, 7.151911e+002
3.797451e+002, 7.148179e+002
3.802272e+002, 7.143105e+002
3.807093e+002, 7.132274e+002
3.811914e+002, 7.121139e+002
3.816736e+002, 7.118342e+002
3.821557e+002, 7.124832e+002
3.826378e+002, 7.132234e+002
3.831199e+002, 7.135352e+002
3.836020e+002, 7.134254e+002
3.840841e+002, 7.131016e+002
3.845663e+002, 7.121804e+002
3.850484e+002, 7.114352e+002
3.855305e+002, 7.113561e+002
3.860126e+002, 7.118256e+002
3.864947e+002, 7.125357e+002
3.869768e+002, 7.134341e+002
3.874590e+002, 7.143486e+002
3.879411e+002, 7.147993e+002
3.884232e+002, 7.144863e+002
3.889053e+002, 7.146560e+002
3.893874e+002, 7.158224e+002
3.898695e+002, 7.174719e+002
3.903517e+002, 7.190875e+002
3.908338e+002, 7.205691e+002
3.913159e+002, 7.219506e+002
3.917980e+002, 7.233303e+002
3.922801e+002, 7.247440e+002
3.927622e+002, 7.255906e+002
3.932444e+002, 7.253719e+002
3.937265e+002, 7.251139e+002
3.942086e+002, 7.253309e+002
3.946907e+002, 7.259424e+002
3.951728e+002, 7.266993e+002
3.956549e+002, 7.274833e+002
3.961371e+002, 7.282284e+002
3.966192e+002, 7.286374e+002
3.971013e+002, 7.282839e+002
3.975834e+002, 7.281180e+002
3.980655e+002, 7.280344e+002
3.985476e+002, 7.282559e+002
3.990298e+002, 7.290809e+002
3.995119e+002, 7.305558e+002
3.999940e+002, 7.324034e+002
4.004761e+002, 7.343167e+002
4.009582e+002, 7.364570e+002
4.014403e+002, 7.380585e+002
4.019225e+002, 7.384910e+002
4.024046e+002, 7.390468e+002
4.028867e+002, 7.405590e+002
4.033688e+002, 7.427080e+002
4.038509e+002, 7.445920e+002
4.043330e+002, 7.455519e+002
4.048152e+002, 7.457755e+002
4.052973e+002, 7.463342e+002
4.057794e+002, 7.473228e+002
4.062615e+002, 7.485403e+002
4.067436e+002, 7.499929e+002
4.072257e+002, 7.516043e+002
4.077079e+002, 7.534655e+002
4.081900e+002, 7.555853e+002
4.086721e+002, 7.574504e+002
4.091542e+002, 7.580664e+002
4.096363e+002, 7.570539e+002
4.101184e+002, 7.569835e+002
4.106006e+002, 7.589810e+002
4.110827e+002, 7.612318e+002
4.115648e+002, 7.629149e+002
4.120469e+002, 7.640663e+002
4.125290e+002, 7.649853e+002
4.130111e+002, 7.656308e+002
4.134933e+002, 7.662336e+002
4.139754e+002, 7.676394e+002
4.144575e+002, 7.701346e+002
4.149396e+002, 7.726765e+002
4.154217e+002, 7.748859e+002
4.159038e+002, 7.768180e+002
4.163860e+002, 7.783231e+002
4.168681e+002, 7.791316e+002
4.173502e+002, 7.802855e+002
4.178323e+002, 7.831556e+002
4.183144e+002, 7.875076e+002
4.187965e+002, 7.912479e+002
4.192787e+002, 7.938414e+002
4.197608e+002, 7.956666e+002
4.202429e+002, 7.973750e+002
4.207250e+002, 7.989318e+002
4.212071e+002, 7.993795e+002
4.216892e+002, 7.972518e+002
4.221714e+002, 7.943588e+002
4.226535e+002, 7.933302e+002
4.231356e+002, 7.943593e+002
4.236177e+002, 7.956823e+002
4.240998e+002, 7.963076e+002
4.245819e+002, 7.962354e+002
4.250641e+002, 7.957159e+002
4.255462e+002, 7.942620e+002
4.260283e+002, 7.929885e+002
4.265104e+002, 7.927095e+002
4.269925e+002, 7.929062e+002
4.274746e+002, 7.925963e+002
4.279568e+002, 7.914479e+002
4.284389e+002, 7.897054e+002
4.289210e+002, 7.877342e+002
4.294031e+002, 7.856085e+002
4.298852e+002, 7.828945e+002
4.303673e+002, 7.794767e+002
4.308495e+002, 7.755480e+002
4.313316e+002, 7.707032e+002
4.318137e+002, 7.653178e+002
4.322958e+002, 7.606629e+002
4.327779e+002, 7.577366e+002
4.332600e+002, 7.562723e+002
4.337422e+002, 7.541566e+002
4.342243e+002, 7.503220e+002
4.347064e+002, 7.470900e+002
4.351885e+002, 7.448981e+002
4.356706e+002, 7.433781e+002
4.361527e+002, 7.422665e+002
4.366349e+002, 7.414354e+002
4.371170e+002, 7.406742e+002
4.375991e+002, 7.395267e+002
4.380812e+002, 7.375805e+002
4.385633e+002, 7.367755e+002
4.390454e+002, 7.386452e+002
4.395276e+002, 7.402269e+002
4.400097e+002, 7.402270e+002
4.404918e+002, 7.389948e+002
4.409739e+002, 7.374106e+002
4.414560e+002, 7.358090e+002
4.419381e+002, 7.344904e+002
4.424203e+002, 7.346105e+002
4.429024e+002, 7.370402e+002
4.433845e+002, 7.385873e+002
4.438666e+002, 7.374406e+002
4.443487e+002, 7.355266e+002
4.448308e+002, 7.342657e+002
4.453130e+002, 7.339109e+002
4.457951e+002, 7.340811e+002
4.462772e+002, 7.346478e+002
4.467593e+002, 7.355264e+002
4.472414e+002, 7.361801e+002
4.477235e+002, 7.363112e+002
4.482057e+002, 7.367148e+002
4.486878e+002, 7.382681e+002
4.491699e+002, 7.405646e+002
4.496520e+002, 7.426729e+002
4.501341e+002, 7.445064e+002
4.506162e+002, 7.459323e+002
4.510984e+002, 7.462635e+002
4.515805e+002, 7.458021e+002
4.520626e+002, 7.466351e+002
4.525447e+002, 7.500214e+002
4.530268e+002, 7.545510e+002
4.535089e+002, 7.573441e+002
4.539911e+002, 7.580184e+002
4.544732e+002, 7.592473e+002
4.549553e+002, 7.618880e+002
4.554374e+002, 7.652190e+002
4.559195e+002, 7.687959e+002
4.564016e+002, 7.724570e+002
4.568838e+002, 7.755604e+002
4.573659e+002, 7.775212e+002
4.578480e+002, 7.784076e+002
4.583301e+002, 7.795648e+002
4.588122e+002, 7.814706e+002
4.592943e+002, 7.830448e+002
4.597765e+002, 7.835770e+002
4.602586e+002, 7.837967e+002
4.607407e+002, 7.848001e+002
4.612228e+002, 7.869100e+002
4.617049e+002, 7.893626e+002
4.621870e+002, 7.907962e+002
4.626692e+002, 7.901993e+002
4.631513e+002, 7.919084e+002
4.636334e+002, 7.971641e+002
4.641155e+002, 8.033405e+002
4.645976e+002, 8.099608e+002
4.650797e+002, 8.166124e+002
4.655619e+002, 8.227549e+002
4.660440e+002, 8.279355e+002
4.665261e+002, 8.325870e+002
4.670082e+002, 8.380323e+002
4.674903e+002, 8.449597e+002
4.679724e+002, 8.508420e+002
4.684546e+002, 8.554442e+002
4.689367e+002, 8.584753e+002
4.694188e+002, 8.597049e+002
4.699009e+002, 8.590917e+002
4.703830e+002, 8.564951e+002
4.708651e+002, 8.515572e+002
4.713473e+002, 8.445193e+002
4.718294e+002, 8.359442e+002
4.723115e+002, 8.253809e+002
4.727936e+002, 8.147332e+002
4.732757e+002, 8.048947e+002
4.737578e+002, 7.959809e+002
4.742400e+002, 7.884554e+002
4.747221e+002, 7.829183e+002
4.752042e+002, 7.779187e+002
4.756863e+002, 7.723375e+002
4.761684e+002, 7.664897e+002
4.766505e+002, 7.614639e+002
4.771327e+002, 7.576691e+002
4.776148e+002, 7.542625e+002
4.780969e+002, 7.499805e+002
4.785790e+002, 7.446209e+002
4.790611e+002, 7.402101e+002
4.795432e+002, 7.373079e+002
4.800254e+002, 7.350107e+002
4.805075e+002, 7.330231e+002
4.809896e+002, 7.311642e+002
4.814717e+002, 7.289952e+002
4.819538e+002, 7.262196e+002
4.824359e+002, 7.232103e+002
4.829181e+002, 7.210516e+002
4.834002e+002, 7.205667e+002
4.838823e+002, 7.197535e+002
4.843644e+002, 7.181877e+002
4.848465e+002, 7.166024e+002
4.853286e+002, 7.156120e+002
4.858108e+002, 7.151781e+002
4.862929e+002, 7.147656e+002
4.867750e+002, 7.138381e+002
4.872571e+002, 7.125140e+002
4.877392e+002, 7.118595e+002
4.882213e+002, 7.122221e+002
4.887035e+002, 7.127045e+002
4.891856e+002, 7.130731e+002
4.896677e+002, 7.134086e+002
4.901498e+002, 7.137396e+002
4.906319e+002, 7.140727e+002
4.911140e+002, 7.145798e+002
4.915962e+002, 7.157394e+002
4.920783e+002, 7.173903e+002
4.925604e+002, 7.180276e+002
4.930425e+002, 7.170308e+002
4.935246e+002, 7.159336e+002
4.940067e+002, 7.163430e+002
4.944889e+002, 7.174998e+002
4.949710e+002, 7.175989e+002
4.954531e+002, 7.155179e+002
4.959352e+002, 7.130922e+002
4.964173e+002, 7.117955e+002
4.968994e+002, 7.113937e+002
4.973816e+002, 7.112469e+002
4.978637e+002, 7.113795e+002
4.983458e+002, 7.109063e+002
4.988279e+002, 7.082254e+002
4.993100e+002, 7.026934e+002
4.997921e+002, 6.981898e+002
5.002743e+002, 6.957313e+002
5.007564e+002, 6.936995e+002
5.012385e+002, 6.910476e+002
5.017206e+002, 6.878891e+002
5.022027e+002, 6.848679e+002
5.026848e+002, 6.823513e+002
5.031670e+002, 6.801852e+002
5.036491e+002, 6.779424e+002
5.041312e+002, 6.753768e+002
5.046133e+002, 6.731345e+002
5.050954e+002, 6.715577e+002
5.055775e+002, 6.700236e+002
5.060597e+002, 6.677681e+002
5.065418e+002, 6.650381e+002
5.070239e+002, 6.630313e+002
5.075060e+002, 6.629834e+002
5.079881e+002, 6.643085e+002
5.084702e+002, 6.641008e+002
5.089524e+002, 6.617497e+002
5.094345e+002, 6.592419e+002
5.099166e+002, 6.569992e+002
5.103987e+002, 6.550403e+002
5.108808e+002, 6.534200e+002
5.113629e+002, 6.521438e+002
5.118451e+002, 6.511696e+002
5.123271e+002, 6.507557e+002
5.128093e+002, 6.506200e+002
5.132914e+002, 6.498886e+002
5.137735e+002, 6.483944e+002
5.142556e+002, 6.467855e+002
5.147377e+002, 6.455572e+002
5.152198e+002, 6.445554e+002
5.157020e+002, 6.432148e+002
5.161841e+002, 6.410530e+002
5.166662e+002, 6.392286e+002
5.171483e+002, 6.383515e+002
5.176304e+002, 6.381152e+002
5.181125e+002, 6.382160e+002
5.185947e+002, 6.385527e+002
5.190768e+002, 6.386077e+002
5.195589e+002, 6.377770e+002
5.200410e+002, 6.359563e+002
5.205231e+002, 6.341861e+002
5.210052e+002, 6.323080e+002
5.214874e+002, 6.306458e+002
5.219695e+002, 6.290897e+002
5.224516e+002, 6.278745e+002
5.229337e+002, 6.275429e+002
5.234158e+002, 6.282467e+002
5.238979e+002, 6.291996e+002
5.243801e+002, 6.291161e+002
5.248622e+002, 6.277222e+002
5.253443e+002, 6.267449e+002
5.258264e+002, 6.263455e+002
5.263085e+002, 6.262755e+002
5.267906e+002, 6.268580e+002
5.272728e+002, 6.276168e+002
5.277549e+002, 6.275970e+002
5.282370e+002, 6.262052e+002
5.287191e+002, 6.243463e+002
5.292012e+002, 6.230153e+002
5.296833e+002, 6.222112e+002
5.301655e+002, 6.220795e+002
5.306476e+002, 6.230421e+002
5.311297e+002, 6.240451e+002
5.316118e+002, 6.237587e+002
5.320939e+002, 6.223665e+002
5.325760e+002, 6.210026e+002
5.330582e+002, 6.196222e+002
5.335403e+002, 6.185763e+002
5.340224e+002, 6.184166e+002
5.345045e+002, 6.188517e+002
5.349866e+002, 6.189856e+002
5.354688e+002, 6.184161e+002
5.359509e+002, 6.174406e+002
5.364330e+002, 6.166002e+002
5.369151e+002, 6.159717e+002
5.373972e+002, 6.153187e+002
5.378793e+002, 6.149523e+002
5.383615e+002, 6.142776e+002
5.388436e+002, 6.124402e+002
5.393257e+002, 6.100526e+002
5.398078e+002, 6.085617e+002
5.402899e+002, 6.088336e+002
5.407720e+002, 6.101458e+002
5.412542e+002, 6.108779e+002
5.417363e+002, 6.109207e+002
5.422184e+002, 6.107233e+002
5.427005e+002, 6.102115e+002
5.431826e+002, 6.095770e+002
5.436647e+002, 6.089428e+002
5.441469e+002, 6.082857e+002
5.446290e+002, 6.074769e+002
5.451111e+002, 6.063408e+002
5.455932e+002, 6.050980e+002
5.460753e+002, 6.040692e+002
5.465574e+002, 6.032546e+002
5.470396e+002, 6.025538e+002
5.475217e+002, 6.019552e+002
5.480038e+002, 6.014280e+002
5.484859e+002, 6.009381e+002
5.489680e+002, 6.004971e+002
5.494501e+002, 6.000153e+002
5.499323e+002, 5.994159e+002
5.504144e+002, 5.988231e+002
5.508965e+002, 5.984244e+002
5.513786e+002, 5.981364e+002
5.518607e+002, 5.976683e+002
5.523428e+002, 5.968610e+002
5.528250e+002, 5.958018e+002
5.533071e+002, 5.946737e+002
5.537892e+002, 5.931536e+002
5.542713e+002, 5.921719e+002
5.547534e+002, 5.920181e+002
5.552355e+002, 5.920646e+002
5.557177e+002, 5.920267e+002
5.561998e+002, 5.918854e+002
5.566819e+002, 5.917078e+002
5.571640e+002, 5.915372e+002
5.576461e+002, 5.913506e+002
5.581282e+002, 5.911382e+002
5.586104e+002, 5.909313e+002
5.590925e+002, 5.904633e+002
5.595746e+002, 5.893201e+002
5.600567e+002, 5.882501e+002
5.605388e+002, 5.881523e+002
5.610209e+002, 5.888483e+002
5.615031e+002, 5.890345e+002
5.619852e+002, 5.875707e+002
5.624673e+002, 5.858447e+002
5.629494e+002, 5.855302e+002
5.634315e+002, 5.863397e+002
5.639136e+002, 5.867278e+002
5.643958e+002, 5.859824e+002
5.648779e+002, 5.847542e+002
5.653600e+002, 5.841534e+002
5.658421e+002, 5.844363e+002
5.663242e+002, 5.846696e+002
5.668063e+002, 5.850040e+002
5.672885e+002, 5.851458e+002
5.677706e+002, 5.848383e+002
5.682527e+002, 5.842181e+002
5.687348e+002, 5.835720e+002
5.692169e+002, 5.830364e+002
5.696990e+002, 5.825704e+002
5.701812e+002, 5.820887e+002
5.706633e+002, 5.815753e+002
5.711454e+002, 5.811233e+002
5.716275e+002, 5.808722e+002
5.721096e+002, 5.805429e+002
5.725917e+002, 5.797390e+002
5.730739e+002, 5.787688e+002
5.735560e+002, 5.783840e+002
5.740381e+002, 5.790910e+002
5.745202e+002, 5.800980e+002
5.750023e+002, 5.805792e+002
5.754844e+002, 5.805847e+002
5.759666e+002, 5.802527e+002
5.764487e+002, 5.794459e+002
5.769308e+002, 5.788870e+002
5.774129e+002, 5.796289e+002
5.778950e+002, 5.816934e+002
5.783771e+002, 5.826473e+002
5.788593e+002, 5.815172e+002
5.793414e+002, 5.802618e+002
5.798235e+002, 5.796888e+002
5.803056e+002, 5.795907e+002
5.807877e+002, 5.796847e+002
5.812698e+002, 5.798539e+002
5.817520e+002, 5.799368e+002
5.822341e+002, 5.797326e+002
5.827162e+002, 5.792256e+002
5.831984e+002, 5.785461e+002
5.836805e+002, 5.774375e+002
5.841626e+002, 5.764792e+002
5.846447e+002, 5.756293e+002
5.851268e+002, 5.750981e+002
5.856089e+002, 5.753963e+002
5.860911e+002, 5.766760e+002
5.865732e+002, 5.777057e+002
5.870553e+002, 5.768229e+002
5.875374e+002, 5.746860e+002
5.880195e+002, 5.741288e+002
5.885016e+002, 5.757351e+002
5.889838e+002, 5.770653e+002
5.894659e+002, 5.762551e+002
5.899480e+002, 5.741204e+002
5.904301e+002, 5.732648e+002
5.909122e+002, 5.746741e+002
5.913943e+002, 5.753799e+002
5.918765e+002, 5.734628e+002
5.923586e+002, 5.710027e+002
5.928407e+002, 5.704465e+002
5.933228e+002, 5.718499e+002
5.938049e+002, 5.736365e+002
5.942870e+002, 5.747371e+002
5.947692e+002, 5.751368e+002
5.952513e+002, 5.746706e+002
5.957334e+002, 5.723525e+002
5.962155e+002, 5.709389e+002
5.966976e+002, 5.711774e+002
5.971797e+002, 5.719146e+002
5.976619e+002, 5.724791e+002
5.981440e+002, 5.728214e+002
5.986261e+002, 5.731570e+002
5.991082e+002, 5.736964e+002
5.995903e+002, 5.742294e+002
6.000724e+002, 5.742556e+002
6.005546e+002, 5.737687e+002
6.010367e+002, 5.735472e+002
6.015188e+002, 5.740331e+002
6.020009e+002, 5.745771e+002
6.024830e+002, 5.741893e+002
6.029651e+002, 5.728991e+002
6.034473e+002, 5.719271e+002
6.039294e+002, 5.717815e+002
6.044115e+002, 5.716746e+002
6.048936e+002, 5.710798e+002
6.053757e+002, 5.701726e+002
6.058578e+002, 5.692561e+002
6.063400e+002, 5.684570e+002
6.068221e+002, 5.679520e+002
6.073042e+002, 5.681551e+002
6.077863e+002, 5.693510e+002
6.082684e+002, 5.694097e+002
6.087505e+002, 5.670160e+002
6.092327e+002, 5.650265e+002
6.097148e+002, 5.643288e+002
6.101969e+002, 5.644720e+002
6.106790e+002, 5.650971e+002
6.111611e+002, 5.661351e+002
6.116432e+002, 5.667901e+002
6.121254e+002, 5.660013e+002
6.126075e+002, 5.642718e+002
6.130896e+002, 5.632347e+002
6.135717e+002, 5.630702e+002
6.140538e+002, 5.631214e+002
6.145359e+002, 5.631621e+002
6.150181e+002, 5.630504e+002
6.155002e+002, 5.622959e+002
6.159823e+002, 5.603587e+002
6.164644e+002, 5.590409e+002
6.169465e+002, 5.591537e+002
6.174286e+002, 5.596955e+002
6.179108e+002, 5.598225e+002
6.183929e+002, 5.595547e+002
6.188750e+002, 5.593567e+002
6.193571e+002, 5.595384e+002
6.198392e+002, 5.598863e+002
6.203214e+002, 5.598346e+002
6.208035e+002, 5.593138e+002
6.212856e+002, 5.586051e+002
6.217677e+002, 5.572893e+002
6.222498e+002, 5.562358e+002
6.227319e+002, 5.563085e+002
6.232141e+002, 5.570006e+002
6.236962e+002, 5.569153e+002
6.241783e+002, 5.550584e+002
6.246604e+002, 5.530912e+002
6.251425e+002, 5.529257e+002
6.256246e+002, 5.540218e+002
6.261068e+002, 5.545370e+002
6.265889e+002, 5.540394e+002
6.270710e+002, 5.531853e+002
6.275531e+002, 5.524930e+002
6.280352e+002, 5.519708e+002
6.285173e+002, 5.518202e+002
6.289995e+002, 5.524283e+002
6.294816e+002, 5.528552e+002
6.299637e+002, 5.527828e+002
6.304458e+002, 5.525155e+002
6.309279e+002, 5.523936e+002
6.314100e+002, 5.524238e+002
6.318922e+002, 5.523113e+002
6.323743e+002, 5.517419e+002
6.328564e+002, 5.508916e+002
6.333385e+002, 5.504747e+002
6.338206e+002, 5.506171e+002
6.343027e+002, 5.506593e+002
6.347849e+002, 5.503492e+002
6.352670e+002, 5.499229e+002
6.357491e+002, 5.495350e+002
6.362312e+002, 5.492015e+002
6.367133e+002, 5.491044e+002
6.371954e+002, 5.496340e+002
6.376776e+002, 5.501240e+002
6.381597e+002, 5.500511e+002
6.386418e+002, 5.495185e+002
6.391239e+002, 5.487191e+002
6.396060e+002, 5.477228e+002
6.400881e+002, 5.467286e+002
6.405703e+002, 5.459855e+002
6.410524e+002, 5.455072e+002
6.415345e+002, 5.451718e+002
6.420166e+002, 5.453172e+002
6.424987e+002, 5.452093e+002
6.429808e+002, 5.445408e+002
6.434630e+002, 5.436487e+002
6.439451e+002, 5.427752e+002
6.444272e+002, 5.420092e+002
6.449093e+002, 5.415152e+002
6.453914e+002, 5.416232e+002
6.458735e+002, 5.420545e+002
6.463557e+002, 5.420658e+002
6.468378e+002, 5.416317e+002
6.473199e+002, 5.413354e+002
6.478020e+002, 5.415831e+002
6.482841e+002, 5.418503e+002
6.487662e+002, 5.411359e+002
6.492484e+002, 5.391743e+002
6.497305e+002, 5.377524e+002
6.502126e+002, 5.372502e+002
6.506947e+002, 5.370794e+002
6.511768e+002, 5.370371e+002
6.516589e+002, 5.370632e+002
6.521411e+002, 5.370863e+002
6.526232e+002, 5.370862e+002
6.531053e+002, 5.371454e+002
6.535874e+002, 5.374506e+002
6.540695e+002, 5.380074e+002
6.545516e+002, 5.381878e+002
6.550338e+002, 5.378561e+002
6.555159e+002, 5.374154e+002
6.559980e+002, 5.369952e+002
6.564801e+002, 5.365768e+002
6.569622e+002, 5.360134e+002
6.574443e+002, 5.352327e+002
6.579265e+002, 5.349566e+002
6.584086e+002, 5.361230e+002
6.588907e+002, 5.375330e+002
6.593728e+002, 5.377233e+002
6.598549e+002, 5.368875e+002
6.603370e+002, 5.362278e+002
6.608192e+002, 5.363320e+002
6.613013e+002, 5.365430e+002
6.617834e+002, 5.356175e+002
6.622655e+002, 5.330523e+002
6.627476e+002, 5.312274e+002
6.632297e+002, 5.304484e+002
6.637119e+002, 5.300878e+002
6.641940e+002, 5.303411e+002
6.646761e+002, 5.307459e+002
6.651582e+002, 5.306736e+002
6.656403e+002, 5.299582e+002
6.661224e+002, 5.290894e+002
6.666046e+002, 5.284335e+002
6.670867e+002, 5.279343e+002
6.675688e+002, 5.274086e+002
6.680509e+002, 5.268500e+002
6.685330e+002, 5.265152e+002
6.690151e+002, 5.265832e+002
6.694973e+002, 5.268777e+002
6.699794e+002, 5.270675e+002
6.704615e+002, 5.271700e+002
6.709436e+002, 5.270974e+002
6.714257e+002, 5.267345e+002
6.719078e+002, 5.263099e+002
6.723900e+002, 5.259559e+002
6.728721e+002, 5.256146e+002
6.733542e+002, 5.250760e+002
6.738363e+002, 5.242830e+002
6.743184e+002, 5.236459e+002
6.748005e+002, 5.238444e+002
6.752827e+002, 5.247560e+002
6.757648e+002, 5.251049e+002
6.762469e+002, 5.247083e+002
6.767290e+002, 5.242933e+002
6.772111e+002, 5.242811e+002
6.776932e+002, 5.244044e+002
6.781754e+002, 5.241938e+002
6.786575e+002, 5.236041e+002
6.791396e+002, 5.229558e+002
6.796217e+002, 5.222730e+002
6.801038e+002, 5.216017e+002
6.805859e+002, 5.209462e+002
6.810681e+002, 5.203377e+002
6.815502e+002, 5.198085e+002
6.820323e+002, 5.193782e+002
6.825144e+002, 5.191387e+002
6.829965e+002, 5.193263e+002
6.834786e+002, 5.199910e+002
6.839608e+002, 5.202424e+002
6.844429e+002, 5.199794e+002
6.849250e+002, 5.194769e+002
6.854071e+002, 5.185323e+002
6.858892e+002, 5.175714e+002
6.863713e+002, 5.170941e+002
6.868535e+002, 5.171635e+002
6.873356e+002, 5.173287e+002
6.878177e+002, 5.175336e+002
6.882998e+002, 5.176337e+002
6.887819e+002, 5.175219e+002
6.892640e+002, 5.171773e+002
6.897462e+002, 5.164651e+002
6.902283e+002, 5.153196e+002
6.907104e+002, 5.141578e+002
6.911925e+002, 5.136342e+002
6.916746e+002, 5.138596e+002
6.921567e+002, 5.136985e+002
6.926389e+002, 5.126278e+002
6.931210e+002, 5.118920e+002
6.936031e+002, 5.119677e+002
6.940852e+002, 5.124145e+002
6.945673e+002, 5.128144e+002
6.950494e+002, 5.131097e+002
6.955316e+002, 5.134220e+002
6.960137e+002, 5.141027e+002
6.964958e+002, 5.146612e+002
6.969779e+002, 5.142365e+002
6.974600e+002, 5.130413e+002
6.979421e+002, 5.121420e+002
6.984243e+002, 5.119474e+002
6.989064e+002, 5.118570e+002
6.993885e+002, 5.110640e+002
6.998706e+002, 5.094809e+002
7.003527e+002, 5.083510e+002
7.008348e+002, 5.079680e+002
7.013170e+002, 5.076925e+002
7.017991e+002, 5.072204e+002
7.022812e+002, 5.069411e+002
7.027633e+002, 5.075486e+002
7.032454e+002, 5.088855e+002
7.037275e+002, 5.096577e+002
7.042097e+002, 5.085941e+002
7.046918e+002, 5.068849e+002
7.051739e+002, 5.063971e+002
7.056560e+002, 5.069732e+002
7.061381e+002, 5.076983e+002
7.066202e+002, 5.083611e+002
7.071024e+002, 5.088976e+002
7.075845e+002, 5.092997e+002
7.080666e+002, 5.095595e+002
7.085487e+002, 5.092232e+002
7.090308e+002, 5.075991e+002
7.095129e+002, 5.063210e+002
7.099951e+002, 5.057565e+002
7.104772e+002, 5.055252e+002
7.109593e+002, 5.054402e+002
7.114414e+002, 5.053969e+002
7.119235e+002, 5.052114e+002
7.124056e+002, 5.047340e+002
7.128878e+002, 5.041381e+002
7.133699e+002, 5.036710e+002
7.138520e+002, 5.033246e+002
7.143341e+002, 5.030834e+002
7.148162e+002, 5.029722e+002
7.152983e+002, 5.028064e+002
7.157805e+002, 5.023528e+002
7.162626e+002, 5.017209e+002
7.167447e+002, 5.015350e+002
7.172268e+002, 5.024756e+002
7.177089e+002, 5.028677e+002
7.181910e+002, 5.019939e+002
7.186732e+002, 5.010370e+002
7.191553e+002, 5.009334e+002
7.196374e+002, 5.014585e+002
7.201195e+002, 5.018509e+002
7.206016e+002, 5.017296e+002
7.210837e+002, 5.014564e+002
7.215659e+002, 5.016816e+002
7.220480e+002, 5.022334e+002
7.225301e+002, 5.019865e+002
7.230122e+002, 5.006729e+002
7.234943e+002, 4.995570e+002
7.239764e+002, 4.995029e+002
7.244586e+002, 5.000574e+002
7.249407e+002, 5.000075e+002
7.254228e+002, 4.988507e+002
7.259049e+002, 4.983390e+002
7.263870e+002, 4.989298e+002
7.268691e+002, 4.998195e+002
7.273513e+002, 5.009280e+002
7.278334e+002, 5.019164e+002
7.283155e+002, 5.022515e+002
7.287976e+002, 5.017729e+002
7.292797e+002, 5.009049e+002
7.297618e+002, 4.998153e+002
7.302440e+002, 4.987014e+002
7.307261e+002, 4.984653e+002
7.312082e+002, 4.992046e+002
7.316903e+002, 4.996466e+002
7.321724e+002, 4.991361e+002
7.326545e+002, 4.983190e+002
7.331367e+002, 4.981349e+002
7.336188e+002, 4.987131e+002
7.341009e+002, 4.992760e+002
7.345830e+002, 5.001278e+002
7.350651e+002, 5.006069e+002
7.355472e+002, 5.004226e+002
7.360294e+002, 4.997789e+002
7.365115e+002, 4.987478e+002
7.369936e+002, 4.974541e+002
7.374757e+002, 4.962905e+002
7.379578e+002, 4.954849e+002
7.384399e+002, 4.950621e+002
7.389221e+002, 4.952104e+002
7.394042e+002, 4.958861e+002
7.398863e+002, 4.963946e+002
7.403684e+002, 4.965184e+002
7.408505e+002, 4.966288e+002
7.413326e+002, 4.971487e+002
7.418148e+002, 4.980083e+002
7.422969e+002, 4.983898e+002
7.427790e+002, 4.979427e+002
7.432611e+002, 4.975445e+002
7.437432e+002, 4.972804e+002
7.442253e+002, 4.971132e+002
7.447075e+002, 4.971304e+002
7.451896e+002, 4.972151e+002
7.456717e+002, 4.970042e+002
7.461538e+002, 4.962250e+002
7.466359e+002, 4.955425e+002
7.471180e+002, 4.960504e+002
7.476002e+002, 4.973392e+002
7.480823e+002, 4.978587e+002
7.485644e+002, 4.974130e+002
7.490465e+002, 4.967541e+002
7.495286e+002, 4.962438e+002
7.500107e+002, 4.959274e+002
7.504929e+002, 4.959371e+002
7.509750e+002, 4.965026e+002
7.514571e+002, 4.968259e+002
7.519392e+002, 4.968201e+002
7.524213e+002, 4.966898e+002
7.529034e+002, 4.963172e+002
7.533856e+002, 4.959585e+002
7.538677e+002, 4.960204e+002
7.543498e+002, 4.965732e+002
7.548319e+002, 4.971291e+002
7.553140e+002, 4.971849e+002
7.557961e+002, 4.970873e+002
7.562783e+002, 4.973920e+002
7.567604e+002, 4.980761e+002
7.572425e+002, 4.990232e+002
7.577246e+002, 5.002145e+002
7.582067e+002, 5.014029e+002
7.586888e+002, 5.022970e+002
7.591710e+002, 5.028990e+002
7.596531e+002, 5.033082e+002
7.601352e+002, 5.032121e+002
7.606173e+002, 5.033988e+002
7.610994e+002, 5.040382e+002
7.615815e+002, 5.049289e+002
7.620637e+002, 5.059742e+002
7.625458e+002, 5.071401e+002
7.630279e+002, 5.083864e+002
7.635100e+002, 5.097411e+002
7.639921e+002, 5.110807e+002
7.644742e+002, 5.124276e+002
7.649564e+002, 5.136488e+002
7.654385e+002, 5.143462e+002
7.659206e+002, 5.145656e+002
7.664027e+002, 5.148649e+002
7.668848e+002, 5.155604e+002
7.673669e+002, 5.167211e+002
7.678491e+002, 5.185766e+002
7.683312e+002, 5.213155e+002
7.688133e+002, 5.240875e+002
7.692954e+002, 5.271892e+002
7.697775e+002, 5.298580e+002
7.702596e+002, 5.312354e+002
7.707418e+002, 5.322664e+002
7.712239e+002, 5.341364e+002
7.717060e+002, 5.369994e+002
7.721881e+002, 5.404424e+002
7.726702e+002, 5.443716e+002
7.731523e+002, 5.487631e+002
7.736345e+002, 5.539035e+002
7.741166e+002, 5.593977e+002
7.745987e+002, 5.642599e+002
7.750808e+002, 5.683221e+002
7.755629e+002, 5.726962e+002
7.760450e+002, 5.785434e+002
7.765272e+002, 5.856096e+002
7.770093e+002, 5.926535e+002
7.774914e+002, 5.996011e+002
7.779735e+002, 6.070184e+002
7.784556e+002, 6.152766e+002
7.789377e+002, 6.237816e+002
7.794199e+002, 6.318492e+002
7.799020e+002, 6.397045e+002
7.803841e+002, 6.485811e+002
7.808662e+002, 6.593934e+002
7.813483e+002, 6.699391e+002
7.818304e+002, 6.797999e+002
7.823126e+002, 6.891610e+002
7.827947e+002, 6.984749e+002
7.832768e+002, 7.074211e+002
7.837589e+002, 7.151085e+002
7.842410e+002, 7.211363e+002
7.847231e+002, 7.259756e+002
7.852053e+002, 7.304675e+002
7.856874e+002, 7.342697e+002
7.861695e+002, 7.357315e+002
7.866516e+002, 7.346874e+002
7.871337e+002, 7.333242e+002
7.876158e+002, 7.328876e+002
7.880980e+002, 7.319373e+002
7.885801e+002, 7.280233e+002
7.890622e+002, 7.205775e+002
7.895443e+002, 7.140162e+002
7.900264e+002, 7.092359e+002
7.905085e+002, 7.041988e+002
7.909907e+002, 6.977056e+002
7.914728e+002, 6.913096e+002
7.919549e+002, 6.865342e+002
7.924370e+002, 6.833324e+002
7.929191e+002, 6.805536e+002
7.934012e+002, 6.775381e+002
7.938834e+002, 6.749346e+002
7.943655e+002, 6.730156e+002
7.948476e+002, 6.720710e+002
7.953297e+002, 6.729949e+002
7.958118e+002, 6.757703e+002
7.962939e+002, 6.791666e+002
7.967761e+002, 6.824039e+002
7.972582e+002, 6.856746e+002
7.977403e+002, 6.891971e+002
7.982224e+002, 6.925887e+002
7.987045e+002, 6.979492e+002
7.991866e+002, 7.056071e+002
7.996688e+002, 7.147975e+002
8.001509e+002, 7.250387e+002
8.006330e+002, 7.367705e+002
8.011151e+002, 7.511661e+002
8.015972e+002, 7.684574e+002
8.020793e+002, 7.853152e+002
8.025615e+002, 8.008521e+002
8.030436e+002, 8.155897e+002
8.035257e+002, 8.308681e+002
8.040078e+002, 8.450439e+002
8.044899e+002, 8.553949e+002
8.049720e+002, 8.616286e+002
8.054542e+002, 8.655595e+002
8.059363e+002, 8.682914e+002
8.064184e+002, 8.701123e+002
8.069005e+002, 8.712993e+002
8.073826e+002, 8.719141e+002
8.078647e+002, 8.734714e+002
8.083469e+002, 8.762108e+002
8.088290e+002, 8.798946e+002
8.093111e+002, 8.842785e+002
8.097932e+002, 8.895374e+002
8.102753e+002, 8.960798e+002
8.107574e+002, 9.033440e+002
8.112396e+002, 9.133109e+002
8.117217e+002, 9.260899e+002
8.122038e+002, 9.413876e+002
8.126859e+002, 9.590797e+002
8.131680e+002, 9.793057e+002
8.136501e+002, 1.002601e+003
8.141323e+002, 1.029025e+003
8.146144e+002, 1.056524e+003
8.150965e+002, 1.087282e+003
8.155786e+002, 1.115805e+003
8.160607e+002, 1.137016e+003
8.165428e+002, 1.150482e+003
8.170250e+002, 1.154921e+003
8.175071e+002, 1.150191e+003
8.179892e+002, 1.137545e+003
8.184713e+002, 1.117112e+003
8.189534e+002, 1.091114e+003
8.194355e+002, 1.066849e+003
8.199177e+002, 1.043348e+003
8.203998e+002, 1.025532e+003
8.208819e+002, 1.012857e+003
8.213640e+002, 1.007638e+003
8.218461e+002, 1.010111e+003
8.223282e+002, 1.021680e+003
8.228104e+002, 1.044172e+003
8.232925e+002, 1.077034e+003
8.237746e+002, 1.123348e+003
8.242567e+002, 1.181586e+003
8.247388e+002, 1.255951e+003
8.252209e+002, 1.349425e+003
8.257031e+002, 1.460408e+003
8.261852e+002, 1.589985e+003
8.266673e+002, 1.735634e+003
8.271494e+002, 1.886986e+003
8.276315e+002, 2.047832e+003
8.281136e+002, 2.195092e+003
8.285958e+002, 2.301897e+003
8.290779e+002, 2.363669e+003
8.295600e+002, 2.354218e+003
8.300421e+002, 2.267730e+003
8.305242e+002, 2.132344e+003
8.310063e+002, 1.961740e+003
8.314885e+002, 1.768553e+003
8.319706e+002, 1.591852e+003
8.324527e+002, 1.429292e+003
8.329348e+002, 1.288283e+003
8.334169e+002, 1.172139e+003
8.338990e+002, 1.074258e+003
8.343812e+002, 9.938393e+002
8.348633e+002, 9.276000e+002
8.353454e+002, 8.722103e+002
8.358275e+002, 8.276850e+002
8.363096e+002, 7.888244e+002
8.367917e+002, 7.552533e+002
8.372739e+002, 7.257545e+002
8.377560e+002, 7.004191e+002
8.382381e+002, 6.781110e+002
8.387202e+002, 6.572502e+002
8.392023e+002, 6.376474e+002
8.396844e+002, 6.200455e+002
8.401666e+002, 6.051146e+002
8.406487e+002, 5.922376e+002
8.411308e+002, 5.806076e+002
8.416129e+002, 5.702236e+002
8.420950e+002, 5.614654e+002
8.425771e+002, 5.544443e+002
8.430593e+002, 5.477812e+002
8.435414e+002, 5.406357e+002
8.440235e+002, 5.336015e+002
8.445056e+002, 5.277140e+002
8.449877e+002, 5.231205e+002
8.454698e+002, 5.190513e+002
8.459520e+002, 5.158062e+002
8.464341e+002, 5.127012e+002
8.469162e+002, 5.092841e+002
8.473983e+002, 5.061726e+002
8.478804e+002, 5.038738e+002
8.483625e+002, 5.023854e+002
8.488447e+002, 5.014916e+002
8.493268e+002, 5.017624e+002
8.498089e+002, 5.016143e+002
8.502910e+002, 5.000133e+002
8.507731e+002, 4.976068e+002
8.512552e+002, 4.947300e+002
8.517374e+002, 4.917635e+002
8.522195e+002, 4.894829e+002
8.527016e+002, 4.882466e+002
8.531837e+002, 4.876328e+002
8.536658e+002, 4.873568e+002
8.541479e+002, 4.872622e+002
8.546301e+002, 4.864318e+002
8.551122e+002, 4.848373e+002
8.555943e+002, 4.836518e+002
8.560764e+002, 4.833910e+002
8.565585e+002, 4.832337e+002
8.570406e+002, 4.822415e+002
8.575228e+002, 4.805161e+002
8.580049e+002, 4.791948e+002
8.584870e+002, 4.783527e+002
8.589691e+002, 4.778184e+002
8.594512e+002, 4.781598e+002
8.599333e+002, 4.782132e+002
8.604155e+002, 4.772822e+002
8.608976e+002, 4.756573e+002
8.613797e+002, 4.738340e+002
8.618618e+002, 4.718424e+002
8.623439e+002, 4.700067e+002
8.628260e+002, 4.686660e+002
8.633082e+002, 4.673387e+002
8.637903e+002, 4.654752e+002
8.642724e+002, 4.634162e+002
8.647545e+002, 4.617964e+002
8.652366e+002, 4.607086e+002
8.657188e+002, 4.597252e+002
8.662009e+002, 4.585208e+002
8.666830e+002, 4.571809e+002
8.671651e+002, 4.557802e+002
8.676472e+002, 4.543606e+002
8.681293e+002, 4.532884e+002
8.686115e+002, 4.526344e+002
8.690936e+002, 4.519109e+002
8.695757e+002, 4.507962e+002
8.700578e+002, 4.495059e+002
8.705399e+002, 4.484852e+002
8.710220e+002, 4.477977e+002
8.715042e+002, 4.470785e+002
8.719863e+002, 4.463903e+002
8.724684e+002, 4.455797e+002
8.729505e+002, 4.443323e+002
8.734326e+002, 4.431485e+002
8.739147e+002, 4.425787e+002
8.743969e+002, 4.425295e+002
8.748790e+002, 4.423311e+002
8.753611e+002, 4.417926e+002
8.758432e+002, 4.411886e+002
8.763253e+002, 4.404710e+002
8.768074e+002, 4.398512e+002
8.772896e+002, 4.397890e+002
8.777717e+002, 4.399271e+002
8.782538e+002, 4.392277e+002
8.787359e+002, 4.373285e+002
8.792180e+002, 4.356923e+002
8.797001e+002, 4.361194e+002
8.801823e+002, 4.374901e+002
8.806644e+002, 4.377166e+002
8.811465e+002, 4.369767e+002
8.816286e+002, 4.361453e+002
8.821107e+002, 4.354595e+002
8.825928e+002, 4.348789e+002
8.830750e+002, 4.344270e+002
8.835571e+002, 4.339519e+002
8.840392e+002, 4.327657e+002
8.845213e+002, 4.306076e+002
8.850034e+002, 4.293553e+002
8.854855e+002, 4.295382e+002
8.859677e+002, 4.298051e+002
8.864498e+002, 4.295153e+002
8.869319e+002, 4.288731e+002
8.874140e+002, 4.281564e+002
8.878961e+002, 4.273225e+002
8.883782e+002, 4.267329e+002
8.888604e+002, 4.264335e+002
8.893425e+002, 4.263442e+002
8.898246e+002, 4.267144e+002
8.903067e+002, 4.270753e+002
8.907888e+002, 4.270573e+002
8.912709e+002, 4.266665e+002
8.917531e+002, 4.260359e+002
8.922352e+002, 4.251591e+002
8.927173e+002, 4.242236e+002
8.931994e+002, 4.231397e+002
8.936815e+002, 4.222272e+002
8.941636e+002, 4.219231e+002
8.946458e+002, 4.221105e+002
8.951279e+002, 4.224966e+002
8.956100e+002, 4.229596e+002
8.960921e+002, 4.233794e+002
8.965742e+002, 4.236627e+002
8.970563e+002, 4.237951e+002
8.975385e+002, 4.236863e+002
8.980206e+002, 4.233560e+002
8.985027e+002, 4.231852e+002
8.989848e+002, 4.232838e+002
8.994669e+002, 4.229634e+002
8.999490e+002, 4.216084e+002
9.004312e+002, 4.198670e+002
9.009133e+002, 4.193004e+002
9.013954e+002, 4.202743e+002
9.018775e+002, 4.207434e+002
9.023596e+002, 4.205936e+002
9.028417e+002, 4.201214e+002
9.033239e+002, 4.188386e+002
9.038060e+002, 4.177473e+002
9.042881e+002, 4.181849e+002
9.047702e+002, 4.198196e+002
9.052523e+002, 4.204929e+002
9.057344e+002, 4.192033e+002
9.062166e+002, 4.180369e+002
9.066987e+002, 4.174621e+002
9.071808e+002, 4.172054e+002
9.076629e+002, 4.172110e+002
9.081450e+002, 4.173424e+002
9.086271e+002, 4.173537e+002
9.091093e+002, 4.171922e+002
9.095914e+002, 4.171703e+002
9.100735e+002, 4.178172e+002
9.105556e+002, 4.184439e+002
9.110377e+002, 4.182742e+002
9.115198e+002, 4.175059e+002
9.120020e+002, 4.162515e+002
9.124841e+002, 4.147417e+002
9.129662e+002, 4.139801e+002
9.134483e+002, 4.146747e+002
9.139304e+002, 4.159118e+002
9.144125e+002, 4.161016e+002
9.148947e+002, 4.153770e+002
9.153768e+002, 4.148134e+002
9.158589e+002, 4.144649e+002
9.163410e+002, 4.140807e+002
9.168231e+002, 4.135652e+002
9.173052e+002, 4.130188e+002
9.177874e+002, 4.125980e+002
9.182695e+002, 4.122557e+002
9.187516e+002, 4.114790e+002
9.192337e+002, 4.098399e+002
9.197158e+002, 4.088131e+002
9.201979e+002, 4.089980e+002
9.206801e+002, 4.092189e+002
9.211622e+002, 4.085359e+002
9.216443e+002, 4.075978e+002
9.221264e+002, 4.075571e+002
9.226085e+002, 4.086086e+002
9.230906e+002, 4.093503e+002
9.235728e+002, 4.094961e+002
9.240549e+002, 4.094117e+002
9.245370e+002, 4.090098e+002
9.250191e+002, 4.086039e+002
9.255012e+002, 4.086275e+002
9.259833e+002, 4.089086e+002
9.264655e+002, 4.087213e+002
9.269476e+002, 4.075735e+002
9.274297e+002, 4.068533e+002
9.279118e+002, 4.082376e+002
9.283939e+002, 4.099854e+002
9.288760e+002, 4.098695e+002
9.293582e+002, 4.085653e+002
9.298403e+002, 4.079286e+002
9.303224e+002, 4.083581e+002
9.308045e+002, 4.087230e+002
9.312866e+002, 4.080218e+002
9.317687e+002, 4.069068e+002
9.322509e+002, 4.066769e+002
9.327330e+002, 4.071349e+002
9.332151e+002, 4.074140e+002
9.336972e+002, 4.074172e+002
9.341793e+002, 4.072319e+002
9.346614e+002, 4.068804e+002
9.351436e+002, 4.065385e+002
9.356257e+002, 4.065554e+002
9.361078e+002, 4.068823e+002
9.365899e+002, 4.062824e+002
9.370720e+002, 4.043408e+002
9.375541e+002, 4.032310e+002
9.380363e+002, 4.036875e+002
9.385184e+002, 4.044731e+002
9.390005e+002, 4.048159e+002
9.394826e+002, 4.047613e+002
9.399647e+002, 4.044118e+002
9.404468e+002, 4.036003e+002
9.409290e+002, 4.029427e+002
9.414111e+002, 4.025884e+002
9.418932e+002, 4.021834e+002
9.423753e+002, 4.013222e+002
9.428574e+002, 4.005973e+002
9.433395e+002, 4.007132e+002
9.438217e+002, 4.015139e+002
9.443038e+002, 4.021066e+002
9.447859e+002, 4.021148e+002
9.452680e+002, 4.022444e+002
9.457501e+002, 4.031276e+002
9.462322e+002, 4.038647e+002
9.467144e+002, 4.035754e+002
9.471965e+002, 4.027417e+002
9.476786e+002, 4.022854e+002
9.481607e+002, 4.023541e+002
9.486428e+002, 4.022323e+002
9.491249e+002, 4.011709e+002
9.496071e+002, 4.001044e+002
9.500892e+002, 4.001348e+002
9.505713e+002, 4.007437e+002
9.510534e+002, 4.011912e+002
9.515355e+002, 4.013482e+002
9.520176e+002, 4.011051e+002
9.524998e+002, 4.004249e+002
9.529819e+002, 3.998301e+002
9.534640e+002, 4.000559e+002
9.539461e+002, 4.008086e+002
9.544282e+002, 4.011310e+002
9.549103e+002, 4.010977e+002
9.553925e+002, 4.014090e+002
9.558746e+002, 4.022158e+002
9.563567e+002, 4.026486e+002
9.568388e+002, 4.020055e+002
9.573209e+002, 4.009518e+002
9.578030e+002, 4.011097e+002
9.582852e+002, 4.026607e+002
9.587673e+002, 4.031828e+002
9.592494e+002, 4.023479e+002
9.597315e+002, 4.018270e+002
9.602136e+002, 4.023208e+002
9.606957e+002, 4.028852e+002
9.611779e+002, 4.024789e+002
9.616600e+002, 4.013793e+002
9.621421e+002, 4.010979e+002
9.626242e+002, 4.021497e+002
9.631063e+002, 4.030021e+002
9.635884e+002, 4.035665e+002
9.640706e+002, 4.040269e+002
9.645527e+002, 4.046081e+002
9.650348e+002, 4.050206e+002
9.655169e+002, 4.047306e+002
9.659990e+002, 4.038125e+002
9.664811e+002, 4.034267e+002
9.669633e+002, 4.044649e+002
9.674454e+002, 4.050084e+002
9.679275e+002, 4.042256e+002
9.684096e+002, 4.032101e+002
9.688917e+002, 4.027132e+002
9.693738e+002, 4.024920e+002
9.698560e+002, 4.018766e+002
9.703381e+002, 4.007766e+002
9.708202e+002, 4.003101e+002
9.713023e+002, 4.017919e+002
9.717844e+002, 4.031864e+002
9.722665e+002, 4.030917e+002
9.727487e+002, 4.021939e+002
9.732308e+002, 4.008978e+002
9.737129e+002, 3.996087e+002
9.741950e+002, 3.992285e+002
9.746771e+002, 4.000999e+002
9.751592e+002, 4.009577e+002
9.756414e+002, 4.003521e+002
9.761235e+002, 3.992943e+002
9.766056e+002, 3.992673e+002
9.770877e+002, 3.999365e+002
9.775698e+002, 4.005969e+002
9.780519e+002, 4.010601e+002
9.785341e+002, 4.011420e+002
9.790162e+002, 4.007033e+002
9.794983e+002, 4.001740e+002
9.799804e+002, 4.003148e+002
9.804625e+002, 4.008898e+002
9.809446e+002, 4.008667e+002
9.814268e+002, 4.003110e+002
9.819089e+002, 4.001835e+002
9.823910e+002, 4.007437e+002
9.828731e+002, 4.010724e+002
9.833552e+002, 4.003520e+002
9.838373e+002, 3.991341e+002
9.843195e+002, 3.988804e+002
9.848016e+002, 3.996442e+002
9.852837e+002, 4.001945e+002
9.857658e+002, 4.004818e+002
9.862479e+002, 4.006644e+002
9.867300e+002, 4.008861e+002
9.872122e+002, 4.007342e+002
9.876943e+002, 3.996770e+002
9.881764e+002, 3.979196e+002
9.886585e+002, 3.965395e+002
9.891406e+002, 3.953934e+002
9.896227e+002, 3.950667e+002
9.901049e+002, 3.959338e+002
9.905870e+002, 3.970008e+002
9.910691e+002, 3.980463e+002
9.915512e+002, 3.989212e+002
9.920333e+002, 3.994902e+002
9.925154e+002, 3.997473e+002
9.929976e+002, 3.995843e+002
9.934797e+002, 3.985429e+002
9.939618e+002, 3.977838e+002
9.944439e+002, 3.973008e+002
9.949260e+002, 3.971798e+002
9.954081e+002, 3.977607e+002
9.958903e+002, 3.985636e+002
9.963724e+002, 3.988947e+002
9.968545e+002, 3.987192e+002
9.973366e+002, 3.986847e+002
9.978187e+002, 3.990281e+002
9.983008e+002, 3.993673e+002
9.987830e+002, 3.997686e+002
9.992651e+002, 3.999590e+002
9.997472e+002, 3.994444e+002
1.000229e+003, 3.986976e+002
1.000711e+003, 3.986849e+002
1.001194e+003, 3.995647e+002
1.001676e+003, 4.000938e+002
1.002158e+003, 3.993238e+002
1.002640e+003, 3.985454e+002
1.003122e+003, 3.985564e+002
1.003604e+003, 3.988943e+002
1.004086e+003, 3.991465e+002
1.004568e+003, 3.992887e+002
1.005050e+003, 3.994045e+002
1.005533e+003, 3.995216e+002
1.006015e+003, 3.996334e+002
1.006497e+003, 3.998296e+002
1.006979e+003, 3.999279e+002
1.007461e+003, 3.997988e+002
1.007943e+003, 3.994266e+002
1.008425e+003, 3.985384e+002
1.008907e+003, 3.973753e+002
1.009390e+003, 3.967535e+002
1.009872e+003, 3.970150e+002
1.010354e+003, 3.976915e+002
1.010836e+003, 3.984044e+002
1.011318e+003, 3.991875e+002
1.011800e+003, 4.002263e+002
1.012282e+003, 4.013443e+002
1.012764e+003, 4.021194e+002
1.013246e+003, 4.024980e+002
1.013729e+003, 4.026721e+002
1.014211e+003, 4.027470e+002
1.014693e+003, 4.025474e+002
1.015175e+003, 4.015596e+002
1.015657e+003, 4.001938e+002
1.016139e+003, 3.998354e+002
1.016621e+003, 4.002574e+002
1.017103e+003, 4.002831e+002
1.017586e+003, 3.996987e+002
1.018068e+003, 3.989134e+002
1.018550e+003, 3.981593e+002
1.019032e+003, 3.975728e+002
1.019514e+003, 3.973746e+002
1.019996e+003, 3.975570e+002
1.020478e+003, 3.982290e+002
1.020960e+003, 3.993694e+002
1.021442e+003, 4.000999e+002
1.021925e+003, 4.002219e+002
1.022407e+003, 3.998179e+002
1.022889e+003, 3.988632e+002
1.023371e+003, 3.977164e+002
1.023853e+003, 3.970811e+002
1.024335e+003, 3.969600e+002
1.024817e+003, 3.970702e+002
1.025299e+003, 3.974104e+002
1.025781e+003, 3.980113e+002
1.026264e+003, 3.989423e+002
1.026746e+003, 3.998833e+002
1.027228e+003, 4.006060e+002
1.027710e+003, 4.011512e+002
1.028192e+003, 4.016526e+002
1.028674e+003, 4.021566e+002
1.029156e+003, 4.021453e+002
1.029638e+003, 4.014055e+002
1.030120e+003, 4.008658e+002
1.030603e+003, 4.007710e+002
1.031085e+003, 4.009175e+002
1.031567e+003, 4.011888e+002
1.032049e+003, 4.015543e+002
1.032531e+003, 4.019483e+002
1.033013e+003, 4.024105e+002
1.033495e+003, 4.027585e+002
1.033977e+003, 4.031610e+002
1.034460e+003, 4.030506e+002
1.034942e+003, 4.018386e+002
1.035424e+003, 4.007195e+002
1.035906e+003, 4.006980e+002
1.036388e+003, 4.014638e+002
1.036870e+003, 4.021857e+002
1.037352e+003, 4.030020e+002
1.037834e+003, 4.032700e+002
1.038317e+003, 4.023440e+002
1.038799e+003, 4.018680e+002
1.039281e+003, 4.025693e+002
1.039763e+003, 4.034923e+002
1.040245e+003, 4.040177e+002
1.040727e+003, 4.041924e+002
1.041209e+003, 4.041482e+002
1.041691e+003, 4.038451e+002
1.042173e+003, 4.034481e+002
1.042656e+003, 4.026497e+002
1.043138e+003, 4.021670e+002
1.043620e+003, 4.024655e+002
1.044102e+003, 4.028694e+002
1.044584e+003, 4.028803e+002
1.045066e+003, 4.025971e+002
1.045548e+003, 4.022787e+002
1.046030e+003, 4.019035e+002
1.046512e+003, 4.016467e+002
1.046995e+003, 4.015388e+002
1.047477e+003, 4.015355e+002
1.047959e+003, 4.015460e+002
1.048441e+003, 4.017277e+002
1.048923e+003, 4.025001e+002
1.049405e+003, 4.034777e+002
1.049887e+003, 4.036325e+002
1.050369e+003, 4.026065e+002
1.050852e+003, 4.020322e+002
1.051334e+003, 4.024557e+002
1.051816e+003, 4.030685e+002
1.052298e+003, 4.038446e+002
1.052780e+003, 4.044743e+002
1.053262e+003, 4.045307e+002
1.053744e+003, 4.043017e+002
1.054226e+003, 4.045641e+002
1.054708e+003, 4.055624e+002
1.055191e+003, 4.060220e+002
1.055673e+003, 4.048779e+002
1.056155e+003, 4.040766e+002
1.056637e+003, 4.046010e+002
1.057119e+003, 4.055661e+002
1.057601e+003, 4.064279e+002
1.058083e+003, 4.070854e+002
1.058565e+003, 4.075093e+002
1.059047e+003, 4.076980e+002
1.059530e+003, 4.075233e+002
1.060012e+003, 4.065571e+002
1.060494e+003, 4.057176e+002
1.060976e+003, 4.053316e+002
1.061458e+003, 4.052930e+002
1.061940e+003, 4.057150e+002
1.062422e+003, 4.063370e+002
1.062904e+003, 4.067082e+002
1.063387e+003, 4.067428e+002
1.063869e+003, 4.066563e+002
1.064351e+003, 4.063799e+002
1.064833e+003, 4.061955e+002
1.065315e+003, 4.061884e+002
1.065797e+003, 4.063650e+002
1.066279e+003, 4.067113e+002
1.066761e+003, 4.072525e+002
1.067244e+003, 4.082032e+002
1.067726e+003, 4.095379e+002
1.068208e+003, 4.103998e+002
1.068690e+003, 4.100848e+002
1.069172e+003, 4.097057e+002
1.069654e+003, 4.095819e+002
1.070136e+003, 4.097716e+002
1.070618e+003, 4.108133e+002
1.071100e+003, 4.119672e+002
1.071583e+003, 4.116689e+002
1.072065e+003, 4.099452e+002
1.072547e+003, 4.091878e+002
1.073029e+003, 4.111968e+002
1.073511e+003, 4.128912e+002
1.073993e+003, 4.122783e+002
1.074475e+003, 4.113228e+002
1.074957e+003, 4.115352e+002
1.075439e+003, 4.124093e+002
1.075922e+003, 4.132101e+002
1.076404e+003, 4.137668e+002
1.076886e+003, 4.139634e+002
1.077368e+003, 4.134687e+002
1.077850e+003, 4.132704e+002
1.078332e+003, 4.139707e+002
1.078814e+003, 4.149878e+002
1.079297e+003, 4.161254e+002
1.079779e+003, 4.171756e+002
1.080261e+003, 4.178961e+002
1.080743e+003, 4.182953e+002
1.081225e+003, 4.184918e+002
1.081707e+003, 4.184237e+002
1.082189e+003, 4.185010e+002
1.082671e+003, 4.188900e+002
1.083153e+003, 4.195067e+002
1.083635e+003, 4.204773e+002
1.084118e+003, 4.215153e+002
1.084600e+003, 4.224397e+002
1.085082e+003, 4.231283e+002
1.085564e+003, 4.231828e+002
1.086046e+003, 4.222756e+002
1.086528e+003, 4.219490e+002
1.087010e+003, 4.233722e+002
1.087492e+003, 4.249355e+002
1.087975e+003, 4.254882e+002
1.088457e+003, 4.259522e+002
1.088939e+003, 4.276651e+002
1.089421e+003, 4.300276e+002
1.089903e+003, 4.311696e+002
1.090385e+003, 4.305177e+002
1.090867e+003, 4.306758e+002
1.091349e+003, 4.342476e+002
1.091832e+003, 4.367679e+002
1.092314e+003, 4.350697e+002
1.092796e+003, 4.324661e+002
1.093278e+003, 4.316435e+002
1.093760e+003, 4.321259e+002
1.094242e+003, 4.327480e+002
1.094724e+003, 4.332891e+002
1.095206e+003, 4.334487e+002
1.095688e+003, 4.322569e+002
1.096171e+003, 4.318752e+002
1.096653e+003, 4.337139e+002
1.097135e+003, 4.359328e+002
1.097617e+003, 4.374264e+002
1.098099e+003, 4.383861e+002
1.098581e+003, 4.391494e+002
1.099063e+003, 4.397872e+002
1.099545e+003, 4.404583e+002
1.100027e+003, 4.411148e+002
1.100510e+003, 4.419646e+002
1.100992e+003, 4.436422e+002
1.101474e+003, 4.448653e+002
1.101956e+003, 4.444354e+002
1.102438e+003, 4.435310e+002
1.102920e+003, 4.433539e+002
1.103402e+003, 4.439802e+002
1.103884e+003, 4.452540e+002
1.104367e+003, 4.475592e+002
1.104849e+003, 4.494820e+002
1.105331e+003, 4.505575e+002
1.105813e+003, 4.514808e+002
1.106295e+003, 4.525518e+002
1.106777e+003, 4.535586e+002
1.107259e+003, 4.542873e+002
1.107741e+003, 4.547844e+002
1.108224e+003, 4.552301e+002
1.108706e+003, 4.557104e+002
1.109188e+003, 4.558383e+002
1.109670e+003, 4.548120e+002
1.110152e+003, 4.544984e+002
1.110634e+003, 4.557872e+002
1.111116e+003, 4.574546e+002
1.111598e+003, 4.589126e+002
1.112080e+003, 4.601132e+002
1.112563e+003, 4.609835e+002
1.113045e+003, 4.615182e+002
1.113527e+003, 4.617429e+002
1.114009e+003, 4.607710e+002
1.114491e+003, 4.609703e+002
1.114973e+003, 4.637974e+002
1.115455e+003, 4.661803e+002
1.115937e+003, 4.662135e+002
1.116419e+003, 4.654233e+002
1.116902e+003, 4.657646e+002
1.117384e+003, 4.671407e+002
1.117866e+003, 4.684085e+002
1.118348e+003, 4.696475e+002
1.118830e+003, 4.705939e+002
1.119312e+003, 4.712227e+002
1.119794e+003, 4.715479e+002
1.120276e+003, 4.713001e+002
1.120759e+003, 4.711885e+002
1.121241e+003, 4.719740e+002
1.121723e+003, 4.733851e+002
1.122205e+003, 4.744808e+002
1.122687e+003, 4.752307e+002
1.123169e+003, 4.757052e+002
1.123651e+003, 4.756128e+002
1.124133e+003, 4.763052e+002
1.124615e+003, 4.783844e+002
1.125098e+003, 4.805006e+002
1.125580e+003, 4.816920e+002
1.126062e+003, 4.823947e+002
1.126544e+003, 4.835029e+002
1.127026e+003, 4.849930e+002
1.127508e+003, 4.857063e+002
1.127990e+003, 4.854939e+002
1.128472e+003, 4.858934e+002
1.128954e+003, 4.872440e+002
1.129437e+003, 4.883428e+002
1.129919e+003, 4.885056e+002
1.130401e+003, 4.887234e+002
1.130883e+003, 4.903716e+002
1.131365e+003, 4.929422e+002
1.131847e+003, 4.942221e+002
1.132329e+003, 4.943100e+002
1.132811e+003, 4.950708e+002
1.133294e+003, 4.966392e+002
1.133776e+003, 4.985912e+002
1.134258e+003, 5.007871e+002
1.134740e+003, 5.028500e+002
1.135222e+003, 5.044820e+002
1.135704e+003, 5.057052e+002
1.136186e+003, 5.062777e+002
1.136668e+003, 5.064928e+002
1.137151e+003, 5.078001e+002
1.137633e+003, 5.099055e+002
1.138115e+003, 5.110608e+002
1.138597e+003, 5.110336e+002
1.139079e+003, 5.110487e+002
1.139561e+003, 5.117763e+002
1.140043e+003, 5.129726e+002
1.140525e+003, 5.146534e+002
1.141007e+003, 5.163826e+002
1.141490e+003, 5.170154e+002
1.141972e+003, 5.171434e+002
1.142454e+003, 5.179789e+002
1.142936e+003, 5.196476e+002
1.143418e+003, 5.222827e+002
1.143900e+003, 5.257426e+002
1.144382e+003, 5.284460e+002
1.144864e+003, 5.290336e+002
1.145346e+003, 5.286318e+002
1.145829e+003, 5.277441e+002
1.146311e+003, 5.271257e+002
1.146793e+003, 5.278221e+002
1.147275e+003, 5.295247e+002
1.147757e+003, 5.316544e+002
1.148239e+003, 5.340161e+002
1.148721e+003, 5.365258e+002
1.149203e+003, 5.392823e+002
1.149686e+003, 5.415629e+002
1.150168e+003, 5.425963e+002
1.150650e+003, 5.433242e+002
1.151132e+003, 5.442543e+002
1.151614e+003, 5.454180e+002
1.152096e+003, 5.469622e+002
1.152578e+003, 5.486973e+002
1.153060e+003, 5.502142e+002
1.153542e+003, 5.514127e+002
1.154025e+003, 5.524738e+002
1.154507e+003, 5.530514e+002
1.154989e+003, 5.540587e+002
1.155471e+003, 5.559679e+002
1.155953e+003, 5.582318e+002
1.156435e+003, 5.607344e+002
1.156917e+003, 5.632363e+002
1.157399e+003, 5.654259e+002
1.157881e+003, 5.673051e+002
1.158364e+003, 5.692029e+002
1.158846e+003, 5.716279e+002
1.159328e+003, 5.731558e+002
1.159810e+003, 5.728400e+002
1.160292e+003, 5.727610e+002
1.160774e+003, 5.734092e+002
1.161256e+003, 5.746234e+002
1.161738e+003, 5.765049e+002
1.162221e+003, 5.787571e+002
1.162703e+003, 5.806463e+002
1.163185e+003, 5.821030e+002
1.163667e+003, 5.837376e+002
1.164149e+003, 5.854466e+002
1.164631e+003, 5.877122e+002
1.165113e+003, 5.908669e+002
1.165595e+003, 5.938076e+002
1.166078e+003, 5.959211e+002
1.166560e+003, 5.977834e+002
1.167042e+003, 6.002300e+002
1.167524e+003, 6.029767e+002
1.168006e+003, 6.045457e+002
1.168488e+003, 6.048979e+002
1.168970e+003, 6.053823e+002
1.169452e+003, 6.060619e+002
1.169934e+003, 6.071257e+002
1.170417e+003, 6.086303e+002
1.170899e+003, 6.105608e+002
1.171381e+003, 6.129374e+002
1.171863e+003, 6.155010e+002
1.172345e+003, 6.178201e+002
1.172827e+003, 6.199613e+002
1.173309e+003, 6.222967e+002
1.173791e+003, 6.246516e+002
1.174273e+003, 6.259909e+002
1.174756e+003, 6.265292e+002
1.175238e+003, 6.282070e+002
1.175720e+003, 6.317177e+002
1.176202e+003, 6.353832e+002
1.176684e+003, 6.377853e+002
1.177166e+003, 6.395645e+002
1.177648e+003, 6.413875e+002
1.178130e+003, 6.432418e+002
1.178613e+003, 6.452289e+002
1.179095e+003, 6.472029e+002
1.179577e+003, 6.488822e+002
1.180059e+003, 6.502554e+002
1.180541e+003, 6.514240e+002
1.181023e+003, 6.523167e+002
1.181505e+003, 6.537263e+002
1.181987e+003, 6.564425e+002
1.182469e+003, 6.594830e+002
1.182952e+003, 6.626932e+002
1.183434e+003, 6.654745e+002
1.183916e+003, 6.669153e+002
1.184398e+003, 6.676341e+002
1.184880e+003, 6.686749e+002
1.185362e+003, 6.702278e+002
1.185844e+003, 6.726613e+002
1.186326e+003, 6.774467e+002
1.186808e+003, 6.809472e+002
1.187291e+003, 6.808856e+002
1.187773e+003, 6.814372e+002
1.188255e+003, 6.852057e+002
1.188737e+003, 6.897537e+002
1.189219e+003, 6.930174e+002
1.189701e+003, 6.951489e+002
1.190183e+003, 6.964843e+002
1.190665e+003, 6.966459e+002
1.191148e+003, 6.980834e+002
1.191630e+003, 7.013273e+002
1.192112e+003, 7.043740e+002
1.192594e+003, 7.068057e+002
1.193076e+003, 7.092762e+002
1.193558e+003, 7.121443e+002
1.194040e+003, 7.151669e+002
1.194522e+003, 7.180725e+002
1.195005e+003, 7.207977e+002
1.195487e+003, 7.229647e+002
1.195969e+003, 7.245941e+002
1.196451e+003, 7.267001e+002
1.196933e+003, 7.292803e+002
1.197415e+003, 7.308303e+002
1.197897e+003, 7.310637e+002
1.198379e+003, 7.323988e+002
1.198861e+003, 7.365046e+002
1.199344e+003, 7.410667e+002
1.199826e+003, 7.423379e+002
1.200308e+003, 7.422842e+002
1.200790e+003, 7.452927e+002
1.201272e+003, 7.500564e+002
1.201754e+003, 7.540339e+002
1.202236e+003, 7.569523e+002
1.202718e+003, 7.589273e+002
1.203200e+003, 7.601447e+002
1.203683e+003, 7.613729e+002
1.204165e+003, 7.628418e+002
1.204647e+003, 7.650995e+002
1.205129e+003, 7.691981e+002
1.205611e+003, 7.735920e+002
1.206093e+003, 7.772009e+002
1.206575e+003, 7.801113e+002
1.207057e+003, 7.822231e+002
1.207540e+003, 7.838522e+002
1.208022e+003, 7.856508e+002
1.208504e+003, 7.876999e+002
1.208986e+003, 7.904493e+002
1.209468e+003, 7.946197e+002
1.209950e+003, 7.985920e+002
1.210432e+003, 8.020863e+002
1.210914e+003, 8.052273e+002
1.211396e+003, 8.080865e+002
1.211879e+003, 8.106340e+002
1.212361e+003, 8.128740e+002
1.212843e+003, 8.147653e+002
1.213325e+003, 8.159842e+002
1.213807e+003, 8.161298e+002
1.214289e+003, 8.176152e+002
1.214771e+003, 8.207753e+002
1.215253e+003, 8.238585e+002
1.215735e+003, 8.263735e+002
1.216218e+003, 8.295754e+002
1.216700e+003, 8.343210e+002
1.217182e+003, 8.391306e+002
1.217664e+003, 8.420773e+002
1.218146e+003, 8.438593e+002
1.218628e+003, 8.469471e+002
1.219110e+003, 8.509465e+002
1.219592e+003, 8.537222e+002
1.220075e+003, 8.554089e+002
1.220557e+003, 8.572957e+002
1.221039e+003, 8.597298e+002
1.221521e+003, 8.628242e+002
1.222003e+003, 8.666644e+002
1.222485e+003, 8.704575e+002
1.222967e+003, 8.733685e+002
1.223449e+003, 8.758403e+002
1.223932e+003, 8.784075e+002
1.224414e+003, 8.808283e+002
1.224896e+003, 8.824061e+002
1.225378e+003, 8.837418e+002
1.225860e+003, 8.863168e+002
1.226342e+003, 8.901019e+002
1.226824e+003, 8.929955e+002
1.227306e+003, 8.934805e+002
1.227788e+003, 8.953506e+002
1.228271e+003, 9.020719e+002
1.228753e+003, 9.075943e+002
1.229235e+003, 9.078304e+002
1.229717e+003, 9.073049e+002
1.230199e+003, 9.098981e+002
1.230681e+003, 9.140624e+002
1.231163e+003, 9.167206e+002
1.231645e+003, 9.179135e+002
1.232127e+003, 9.199404e+002
1.232610e+003, 9.229275e+002
1.233092e+003, 9.264820e+002
1.233574e+003, 9.309641e+002
1.234056e+003, 9.346650e+002
1.234538e+003, 9.369581e+002
1.235020e+003, 9.389688e+002
1.235502e+003, 9.415341e+002
1.235984e+003, 9.442120e+002
1.236467e+003, 9.460684e+002
1.236949e+003, 9.474170e+002
1.237431e+003, 9.495319e+002
1.237913e+003, 9.523176e+002
1.238395e+003, 9.555059e+002
1.238877e+003, 9.589241e+002
1.239359e+003, 9.619803e+002
1.239841e+003, 9.645513e+002
1.240323e+003, 9.673336e+002
1.240806e+003, 9.708776e+002
1.241288e+003, 9.741503e+002
1.241770e+003, 9.759704e+002
1.242252e+003, 9.772330e+002
1.242734e+003, 9.782486e+002
1.243216e+003, 9.796874e+002
1.243698e+003, 9.827697e+002
1.244180e+003, 9.867391e+002
1.244662e+003, 9.898445e+002
1.245145e+003, 9.918535e+002
1.245627e+003, 9.940752e+002
1.246109e+003, 9.972568e+002
1.246591e+003, 9.999132e+002
1.247073e+003, 1.001520e+003
1.247555e+003, 1.002933e+003
1.248037e+003, 1.004417e+003
1.248519e+003, 1.005795e+003
1.249002e+003, 1.006659e+003
1.249484e+003, 1.007612e+003
1.249966e+003, 1.009827e+003
1.250448e+003, 1.013234e+003
1.250930e+003, 1.016766e+003
1.251412e+003, 1.020479e+003
1.251894e+003, 1.023567e+003
1.252376e+003, 1.025943e+003
1.252859e+003, 1.028707e+003
1.253341e+003, 1.032174e+003
1.253823e+003, 1.035849e+003
1.254305e+003, 1.039428e+003
1.254787e+003, 1.042629e+003
1.255269e+003, 1.044569e+003
1.255751e+003, 1.046232e+003
1.256233e+003, 1.050011e+003
1.256715e+003, 1.054600e+003
1.257198e+003, 1.057891e+003
1.257680e+003, 1.059761e+003
1.258162e+003, 1.059684e+003
1.258644e+003, 1.058342e+003
1.259126e+003, 1.059658e+003
1.259608e+003, 1.066172e+003
1.260090e+003, 1.072052e+003
1.260572e+003, 1.074558e+003
1.261054e+003, 1.075849e+003
1.261537e+003, 1.075919e+003
1.262019e+003, 1.076212e+003
1.262501e+003, 1.078564e+003
1.262983e+003, 1.081385e+003
1.263465e+003, 1.081423e+003
1.263947e+003, 1.079316e+003
1.264429e+003, 1.080414e+003
1.264911e+003, 1.086038e+003
1.265394e+003, 1.090272e+003
1.265876e+003, 1.092807e+003
1.266358e+003, 1.095305e+003
1.266840e+003, 1.098220e+003
1.267322e+003, 1.100270e+003
1.267804e+003, 1.100654e+003
1.268286e+003, 1.100742e+003
1.268768e+003, 1.102236e+003
1.269250e+003, 1.104520e+003
1.269733e+003, 1.106153e+003
1.270215e+003, 1.107481e+003
1.270697e+003, 1.109492e+003
1.271179e+003, 1.111951e+003
1.271661e+003, 1.114139e+003
1.272143e+003, 1.115977e+003
1.272625e+003, 1.117659e+003
1.273107e+003, 1.119260e+003
1.273589e+003, 1.121294e+003
1.274072e+003, 1.124192e+003
1.274554e+003, 1.127417e+003
1.275036e+003, 1.131362e+003
1.275518e+003, 1.134794e+003
1.276000e+003, 1.136831e+003
1.276482e+003, 1.137927e+003
1.276964e+003, 1.137874e+003
1.277446e+003, 1.137613e+003
1.277929e+003, 1.139659e+003
1.278411e+003, 1.144349e+003
1.278893e+003, 1.147902e+003
1.279375e+003, 1.150045e+003
1.279857e+003, 1.152219e+003
1.280339e+003, 1.154704e+003
1.280821e+003, 1.156430e+003
1.281303e+003, 1.157027e+003
1.281786e+003, 1.157655e+003
1.282268e+003, 1.159043e+003
##END=



