##NAMES=Beusite
##RRUFFID=R160031
##IDEAL CHEMISTRY=Mn^2+^Mn^2+^_2_(PO_4_)_2_
##LOCALITY=Santa Ana Pegmatite, Argentina
##OWNER=RRUFF
##SOURCE=Jaroslav Hyr≈°l
##DESCRIPTION=Orange massive
##STATUS=The identification of this mineral has been confirmed only by single crystal X-ray diffraction.
##URL=rruff.info/R160031
89.01367, 690.8943
89.49579, 689.6839
89.97791, 689.7144
90.46002, 690.3879
90.94214, 694.1867
91.42426, 706.3399
91.90637, 725.7476
92.38849, 742.1500
92.87061, 745.1545
93.35272, 738.9456
93.83484, 734.9013
94.31696, 736.5488
94.79907, 741.4532
95.28119, 745.2566
95.76331, 748.6623
96.24542, 750.9261
96.72754, 750.4446
97.20966, 747.2803
97.69177, 744.7169
98.17389, 743.3221
98.65601, 743.1105
99.13812, 745.7164
99.62024, 752.1981
100.1024, 759.3112
100.5845, 762.2382
101.0666, 760.3854
101.5487, 757.2236
102.0308, 753.7944
102.5129, 749.9236
102.9951, 746.8710
103.4772, 745.0472
103.9593, 743.8938
104.4414, 741.8810
104.9235, 737.7664
105.4056, 734.6368
105.8878, 733.8912
106.3699, 736.8864
106.8520, 740.0375
107.3341, 745.6855
107.8162, 752.4387
108.2983, 752.0627
108.7805, 739.4420
109.2626, 723.7711
109.7447, 710.0474
110.2268, 698.9012
110.7089, 688.9215
111.1910, 680.0809
111.6732, 672.3361
112.1553, 665.4213
112.6374, 659.3230
113.1195, 653.9942
113.6016, 649.3278
114.0837, 644.0033
114.5659, 640.5176
115.0480, 640.8779
115.5301, 645.5904
116.0122, 648.3907
116.4943, 645.4662
116.9764, 639.8071
117.4586, 635.1996
117.9407, 635.3478
118.4228, 635.3347
118.9049, 631.5544
119.3870, 622.7753
119.8691, 614.1526
120.3513, 608.5472
120.8334, 605.4037
121.3155, 603.7055
121.7976, 602.2658
122.2797, 602.2706
122.7618, 605.7555
123.2440, 614.5113
123.7261, 623.0917
124.2082, 626.0179
124.6903, 624.1483
125.1724, 620.6525
125.6545, 616.7857
126.1367, 612.7709
126.6188, 608.9909
127.1009, 605.4393
127.5830, 602.2556
128.0651, 599.7204
128.5472, 597.8073
129.0294, 596.2369
129.5115, 595.5779
129.9936, 595.3144
130.4757, 593.2845
130.9578, 588.8118
131.4399, 582.2939
131.9221, 574.5274
132.4042, 565.3542
132.8863, 555.6169
133.3684, 545.5215
133.8505, 535.0881
134.3326, 525.4046
134.8148, 516.9043
135.2969, 509.4889
135.7790, 502.7011
136.2611, 496.4424
136.7432, 490.9843
137.2253, 486.2400
137.7075, 481.9929
138.1896, 479.5424
138.6717, 479.8726
139.1538, 483.2662
139.6359, 485.5246
140.1180, 486.6994
140.6002, 486.6532
141.0823, 484.8253
141.5644, 480.2447
142.0465, 476.0710
142.5286, 473.4107
143.0107, 472.4994
143.4929, 472.4427
143.9750, 473.3227
144.4571, 475.0490
144.9392, 477.3426
145.4213, 480.2246
145.9034, 483.6961
146.3856, 487.9048
146.8677, 493.8045
147.3498, 498.7980
147.8319, 503.1120
148.3140, 506.5628
148.7961, 508.6408
149.2783, 509.1581
149.7604, 508.4237
150.2425, 506.5435
150.7246, 502.7175
151.2067, 498.7150
151.6888, 494.6558
152.1710, 490.4718
152.6531, 485.7603
153.1352, 480.1674
153.6173, 474.2435
154.0994, 468.2881
154.5815, 462.1063
155.0637, 456.1376
155.5458, 451.0674
156.0279, 446.6530
156.5100, 440.9337
156.9921, 432.1162
157.4742, 422.5747
157.9564, 414.0248
158.4385, 407.0744
158.9206, 400.9623
159.4027, 395.6237
159.8848, 391.0343
160.3669, 386.7979
160.8491, 382.5851
161.3312, 378.7645
161.8133, 375.5743
162.2954, 373.6988
162.7775, 372.0069
163.2596, 370.0077
163.7418, 367.6792
164.2239, 365.2289
164.7060, 362.5060
165.1881, 359.7686
165.6702, 357.3721
166.1523, 355.6994
166.6345, 354.1977
167.1166, 352.3985
167.5987, 350.2374
168.0808, 348.3977
168.5629, 347.3312
169.0450, 346.8752
169.5272, 346.7748
170.0093, 346.7589
170.4914, 347.1386
170.9735, 348.5793
171.4556, 351.2953
171.9377, 353.5552
172.4199, 353.3498
172.9020, 351.5977
173.3841, 350.3697
173.8662, 351.0489
174.3483, 352.6204
174.8304, 353.9095
175.3126, 354.7945
175.7947, 355.4818
176.2768, 355.9202
176.7589, 356.2650
177.2410, 356.9821
177.7231, 358.6668
178.2053, 360.8136
178.6874, 362.5604
179.1695, 363.8386
179.6516, 364.7431
180.1337, 365.1648
180.6158, 365.2277
181.0980, 365.4981
181.5801, 366.5038
182.0622, 367.9469
182.5443, 369.1538
183.0264, 370.0088
183.5085, 370.7109
183.9907, 371.5269
184.4728, 372.4454
184.9549, 373.3156
185.4370, 374.0163
185.9191, 374.5884
186.4012, 375.2804
186.8834, 376.2239
187.3655, 377.0630
187.8476, 376.9917
188.3297, 376.0318
188.8118, 375.0844
189.2939, 374.7965
189.7761, 375.0707
190.2582, 375.3358
190.7403, 375.6513
191.2224, 375.7445
191.7045, 374.7948
192.1866, 372.7553
192.6688, 370.7981
193.1509, 369.7737
193.6330, 369.6376
194.1151, 369.6784
194.5972, 369.9096
195.0793, 370.1649
195.5615, 370.1247
196.0436, 369.8087
196.5257, 369.0444
197.0078, 367.4755
197.4899, 365.0767
197.9720, 363.0190
198.4542, 361.4777
198.9363, 360.3551
199.4184, 359.5380
199.9005, 359.1209
200.3826, 358.5604
200.8647, 357.3406
201.3469, 355.3669
201.8290, 353.7557
202.3111, 352.7729
202.7932, 352.1814
203.2753, 351.2285
203.7574, 349.8493
204.2396, 348.3130
204.7217, 346.6805
205.2038, 344.8570
205.6859, 343.5569
206.1680, 343.0653
206.6501, 343.1001
207.1323, 342.4872
207.6144, 341.0057
208.0965, 339.4388
208.5786, 338.4413
209.0607, 338.2202
209.5428, 337.5944
210.0250, 336.2858
210.5071, 334.5108
210.9892, 333.1241
211.4713, 332.2443
211.9534, 331.5025
212.4355, 330.6461
212.9176, 329.6329
213.3998, 328.6300
213.8819, 327.6501
214.3640, 326.6855
214.8461, 325.7570
215.3282, 324.8298
215.8103, 323.9695
216.2925, 323.2384
216.7746, 322.7128
217.2567, 322.0801
217.7388, 321.3232
218.2209, 320.4248
218.7030, 319.3425
219.1852, 318.0039
219.6673, 316.5846
220.1494, 315.1809
220.6315, 313.7082
221.1136, 312.4750
221.5957, 311.5835
222.0779, 310.9575
222.5600, 310.1486
223.0421, 308.9510
223.5242, 307.9259
224.0063, 307.4702
224.4884, 307.8734
224.9706, 308.1513
225.4527, 308.2286
225.9348, 308.1258
226.4169, 307.9324
226.8990, 307.6516
227.3811, 307.2763
227.8633, 306.7797
228.3454, 306.0602
228.8275, 305.4562
229.3096, 304.9834
229.7917, 304.6440
230.2738, 304.4878
230.7560, 304.6570
231.2381, 304.8143
231.7202, 304.7447
232.2023, 304.2422
232.6844, 304.0181
233.1665, 304.2983
233.6487, 304.8663
234.1308, 304.8883
234.6129, 303.8797
235.0950, 303.0184
235.5771, 302.9853
236.0592, 304.4388
236.5414, 305.2229
237.0235, 305.0488
237.5056, 304.2002
237.9877, 303.5322
238.4698, 303.0621
238.9520, 302.7345
239.4341, 302.5312
239.9162, 302.4977
240.3983, 302.4645
240.8804, 302.3712
241.3625, 302.2906
241.8447, 302.4113
242.3268, 302.7527
242.8089, 303.2717
243.2910, 304.0309
243.7731, 305.3613
244.2552, 306.0653
244.7374, 305.8654
245.2195, 305.1537
245.7016, 304.7861
246.1837, 304.8695
246.6658, 305.1232
247.1479, 305.4447
247.6301, 305.8247
248.1122, 306.3348
248.5943, 307.0543
249.0764, 307.8667
249.5585, 308.6152
250.0406, 309.5452
250.5228, 309.9864
251.0049, 309.5732
251.4870, 308.0048
251.9691, 306.8983
252.4512, 306.4272
252.9333, 306.2914
253.4155, 306.0659
253.8976, 305.8824
254.3797, 305.3286
254.8618, 304.1504
255.3439, 302.1993
255.8260, 300.6681
256.3082, 299.8086
256.7903, 299.1332
257.2724, 297.9878
257.7545, 296.2680
258.2366, 294.3270
258.7188, 292.2095
259.2009, 289.9434
259.6830, 287.6182
260.1651, 285.2333
260.6472, 282.8275
261.1293, 280.4752
261.6115, 278.2780
262.0936, 275.9159
262.5757, 273.2563
263.0578, 270.2732
263.5399, 267.6511
264.0220, 265.4128
264.5042, 263.4414
264.9863, 261.6379
265.4684, 260.0886
265.9505, 258.4754
266.4326, 256.7306
266.9147, 254.8617
267.3969, 252.7817
267.8790, 250.2877
268.3611, 248.0048
268.8432, 246.6509
269.3253, 246.5116
269.8074, 245.9911
270.2896, 244.7081
270.7717, 242.8538
271.2538, 241.3266
271.7359, 240.2195
272.2180, 239.2432
272.7001, 238.1628
273.1823, 236.9184
273.6644, 235.8944
274.1465, 235.1442
274.6286, 234.6413
275.1107, 234.3253
275.5928, 234.2305
276.0750, 234.2172
276.5571, 234.2682
277.0392, 234.4043
277.5213, 234.2819
278.0034, 233.8027
278.4855, 233.1373
278.9677, 232.7158
279.4498, 232.5801
279.9319, 232.4120
280.4140, 232.0554
280.8961, 231.5113
281.3782, 230.7745
281.8604, 229.7595
282.3425, 228.7242
282.8246, 228.1196
283.3067, 227.9583
283.7888, 227.9566
284.2709, 228.1290
284.7531, 228.4227
285.2352, 228.2688
285.7173, 227.5755
286.1994, 226.7293
286.6815, 226.2531
287.1636, 226.1321
287.6458, 226.0725
288.1279, 225.9476
288.6100, 225.7913
289.0921, 225.7869
289.5742, 225.9600
290.0563, 226.1032
290.5385, 225.9484
291.0206, 225.5396
291.5027, 225.1329
291.9848, 224.8235
292.4669, 224.5683
292.9490, 224.2504
293.4312, 223.8712
293.9133, 223.5206
294.3954, 223.2897
294.8775, 223.1574
295.3596, 223.0177
295.8417, 222.7416
296.3239, 222.5619
296.8060, 223.0791
297.2881, 224.2160
297.7702, 225.1213
298.2523, 224.9214
298.7344, 224.0602
299.2166, 223.5071
299.6987, 223.5090
300.1808, 223.7588
300.6629, 223.8888
301.1450, 223.9434
301.6271, 224.1108
302.1093, 224.7038
302.5914, 225.4222
303.0735, 225.7668
303.5556, 225.5907
304.0377, 225.3388
304.5198, 225.4067
305.0020, 225.7153
305.4841, 226.0756
305.9662, 226.4566
306.4483, 226.7992
306.9304, 226.9620
307.4125, 226.8997
307.8947, 226.9678
308.3768, 227.6330
308.8589, 228.5624
309.3410, 229.2483
309.8231, 229.3102
310.3052, 229.1594
310.7874, 229.0217
311.2695, 228.9085
311.7516, 228.9025
312.2337, 229.0929
312.7158, 229.4016
313.1979, 229.7439
313.6801, 230.1627
314.1622, 230.5493
314.6443, 230.8469
315.1264, 231.0667
315.6085, 231.2747
316.0906, 231.2886
316.5728, 231.4243
317.0549, 231.9407
317.5370, 233.2130
318.0191, 234.4172
318.5012, 235.2743
318.9833, 235.8497
319.4655, 236.3299
319.9476, 236.4866
320.4297, 236.7648
320.9118, 237.4540
321.3939, 238.8911
321.8760, 240.0403
322.3582, 240.5100
322.8403, 240.5957
323.3224, 240.7939
323.8045, 240.9259
324.2866, 241.4104
324.7687, 242.5383
325.2509, 244.5891
325.7330, 246.1808
326.2151, 246.9229
326.6972, 247.2878
327.1793, 247.7877
327.6614, 248.6436
328.1436, 249.4011
328.6257, 249.8885
329.1078, 250.0928
329.5899, 250.6718
330.0720, 251.8795
330.5541, 253.2412
331.0363, 254.4058
331.5184, 255.1584
332.0005, 256.1131
332.4826, 257.5779
332.9647, 259.3310
333.4468, 260.1894
333.9290, 259.5191
334.4111, 258.9214
334.8932, 259.3150
335.3753, 261.0656
335.8574, 262.6919
336.3395, 264.1922
336.8216, 265.5039
337.3037, 266.4482
337.7859, 266.8892
338.2680, 267.3792
338.7501, 268.2049
339.2322, 269.3905
339.7143, 270.3399
340.1964, 271.0027
340.6786, 271.5006
341.1607, 271.9772
341.6428, 272.4423
342.1249, 272.7763
342.6070, 272.8665
343.0891, 272.7994
343.5713, 273.0721
344.0534, 273.7418
344.5355, 274.3431
345.0176, 274.4334
345.4997, 274.0632
345.9818, 273.5350
346.4640, 272.8618
346.9461, 272.1346
347.4282, 271.5556
347.9103, 271.1175
348.3924, 270.7005
348.8745, 270.3165
349.3567, 269.8925
349.8388, 269.2326
350.3209, 268.2804
350.8030, 267.1926
351.2851, 266.1891
351.7672, 265.2055
352.2494, 264.0468
352.7315, 262.5130
353.2136, 260.7960
353.6957, 259.0916
354.1778, 257.3899
354.6599, 255.7790
355.1421, 254.3975
355.6242, 253.1254
356.1063, 251.8037
356.5884, 250.3351
357.0705, 248.8141
357.5526, 247.2996
358.0348, 245.7791
358.5169, 244.2602
358.9990, 242.7778
359.4811, 241.2729
359.9632, 239.6509
360.4453, 237.5112
360.9275, 235.8678
361.4096, 235.5477
361.8917, 236.0317
362.3738, 236.1263
362.8559, 234.9370
363.3380, 233.6814
363.8202, 232.9377
364.3023, 232.9052
364.7844, 232.9610
365.2665, 233.1493
365.7486, 233.3187
366.2307, 233.2882
366.7129, 232.5413
367.1950, 232.1079
367.6771, 232.2903
368.1592, 233.1166
368.6413, 233.9696
369.1234, 234.9291
369.6056, 235.8616
370.0877, 236.6640
370.5698, 237.1284
371.0519, 237.8023
371.5340, 238.7260
372.0161, 239.8878
372.4983, 241.2810
372.9804, 243.0283
373.4625, 244.8049
373.9446, 246.3762
374.4267, 247.6020
374.9088, 249.2705
375.3910, 251.4503
375.8731, 253.9734
376.3552, 256.5536
376.8373, 259.2379
377.3194, 261.8442
377.8015, 264.2311
378.2837, 266.4679
378.7658, 268.8997
379.2479, 271.5658
379.7300, 274.3490
380.2121, 277.1244
380.6942, 279.8979
381.1764, 282.8513
381.6585, 286.0147
382.1406, 289.3427
382.6227, 292.6782
383.1048, 296.0502
383.5869, 299.4904
384.0691, 303.1110
384.5512, 306.7909
385.0333, 310.0362
385.5154, 312.7301
385.9975, 315.5267
386.4796, 319.2790
386.9618, 323.6788
387.4439, 327.9550
387.9260, 331.6315
388.4081, 335.0569
388.8902, 338.6813
389.3723, 342.4664
389.8545, 345.9012
390.3366, 348.2615
390.8187, 350.3253
391.3008, 352.9370
391.7829, 356.6399
392.2650, 360.5008
392.7472, 364.0937
393.2293, 367.5513
393.7114, 371.2827
394.1935, 375.7768
394.6756, 380.3120
395.1577, 384.4563
395.6399, 387.9536
396.1220, 391.7229
396.6041, 395.7816
397.0862, 400.2472
397.5683, 405.2645
398.0504, 411.4371
398.5326, 417.5229
399.0147, 423.0479
399.4968, 428.0099
399.9789, 433.8532
400.4610, 440.8694
400.9431, 448.3958
401.4253, 455.9886
401.9074, 463.4828
402.3895, 471.4298
402.8716, 480.1260
403.3537, 489.1484
403.8358, 497.6104
404.3180, 505.1945
404.8001, 512.9056
405.2822, 521.1008
405.7643, 529.7855
406.2464, 539.1268
406.7285, 549.3336
407.2107, 559.3776
407.6928, 567.9843
408.1749, 575.2080
408.6570, 581.8041
409.1391, 587.7068
409.6212, 593.3336
410.1034, 599.8901
410.5855, 607.3674
411.0676, 614.4027
411.5497, 619.7991
412.0318, 624.1125
412.5139, 628.6952
412.9961, 633.7933
413.4782, 639.0107
413.9603, 643.9084
414.4424, 648.5674
414.9245, 653.0530
415.4066, 657.6825
415.8888, 662.0030
416.3709, 665.6062
416.8530, 668.5085
417.3351, 670.8731
417.8172, 673.2590
418.2993, 674.9459
418.7815, 675.2892
419.2636, 674.1005
419.7457, 671.5264
420.2278, 667.4203
420.7099, 661.9656
421.1920, 655.7644
421.6742, 649.1014
422.1563, 641.5594
422.6384, 632.9166
423.1205, 622.9153
423.6026, 612.4673
424.0847, 601.3359
424.5669, 589.9499
425.0490, 578.7703
425.5311, 567.5831
426.0132, 556.7255
426.4953, 546.1179
426.9774, 535.8708
427.4596, 526.3240
427.9417, 517.2932
428.4238, 509.3980
428.9059, 503.0821
429.3880, 498.7545
429.8701, 493.9213
430.3523, 488.1654
430.8344, 482.4618
431.3165, 478.2139
431.7986, 475.4616
432.2807, 473.8135
432.7628, 473.1638
433.2450, 473.4889
433.7271, 474.8368
434.2092, 477.2264
434.6913, 480.1751
435.1734, 483.2086
435.6555, 486.5202
436.1377, 490.6158
436.6198, 495.6621
437.1019, 501.3949
437.5840, 507.5084
438.0661, 514.0626
438.5482, 521.2227
439.0304, 529.1650
439.5125, 537.7233
439.9946, 546.6659
440.4767, 556.0510
440.9588, 565.7928
441.4409, 575.9653
441.9231, 586.4965
442.4052, 597.3201
442.8873, 608.4755
443.3694, 619.8807
443.8515, 631.3021
444.3336, 642.9265
444.8158, 654.9308
445.2979, 667.7116
445.7800, 680.6755
446.2621, 693.8229
446.7442, 707.6708
447.2263, 720.1395
447.7085, 731.0163
448.1906, 740.7750
448.6727, 750.0775
449.1548, 759.1453
449.6369, 767.1711
450.1190, 774.1653
450.6012, 779.9931
451.0833, 784.4135
451.5654, 787.5509
452.0475, 788.8846
452.5296, 787.9377
453.0117, 784.6655
453.4939, 780.4474
453.9760, 775.1786
454.4581, 769.2215
454.9402, 763.1818
455.4223, 756.9528
455.9044, 749.3290
456.3866, 739.5644
456.8687, 728.6577
457.3508, 718.5277
457.8329, 709.0256
458.3150, 699.7353
458.7971, 690.1918
459.2793, 680.6545
459.7614, 671.5268
460.2435, 663.0372
460.7256, 654.3143
461.2077, 644.6463
461.6898, 634.5078
462.1720, 624.4509
462.6541, 614.4062
463.1362, 604.8959
463.6183, 596.3108
464.1004, 588.6300
464.5826, 580.6649
465.0647, 572.0450
465.5468, 563.0301
466.0289, 553.6991
466.5110, 543.7831
466.9931, 534.0923
467.4753, 524.6472
467.9574, 515.5175
468.4395, 506.7287
468.9216, 498.4437
469.4037, 490.0137
469.8858, 481.1523
470.3680, 471.9506
470.8501, 463.3072
471.3322, 455.2586
471.8143, 447.6387
472.2964, 440.3379
472.7785, 433.3940
473.2607, 426.0263
473.7428, 418.0963
474.2249, 409.9604
474.7070, 401.9894
475.1891, 394.2226
475.6712, 386.8776
476.1534, 380.3677
476.6355, 374.2230
477.1176, 367.5914
477.5997, 360.5480
478.0818, 353.7541
478.5639, 347.8114
479.0461, 342.2982
479.5282, 336.7581
480.0103, 331.0853
480.4924, 325.5179
480.9745, 320.1755
481.4566, 315.0353
481.9388, 310.0655
482.4209, 305.1465
482.9030, 300.4726
483.3851, 296.3490
483.8672, 292.7262
484.3493, 288.7273
484.8315, 283.8060
485.3136, 278.7933
485.7957, 274.1422
486.2778, 269.9353
486.7599, 265.8622
487.2420, 262.0770
487.7242, 258.3588
488.2063, 254.2661
488.6884, 249.5271
489.1705, 245.2270
489.6526, 241.6555
490.1347, 238.7075
490.6169, 235.7903
491.0990, 232.9021
491.5811, 229.9753
492.0632, 226.9469
492.5453, 223.8453
493.0274, 220.6887
493.5096, 217.4425
493.9917, 214.2892
494.4738, 211.3621
494.9559, 208.6570
495.4380, 206.1420
495.9201, 204.0134
496.4023, 201.8700
496.8844, 199.2990
497.3665, 196.4008
497.8486, 193.4982
498.3307, 190.7247
498.8128, 188.0485
499.2950, 185.4698
499.7771, 182.8940
500.2592, 180.6522
500.7413, 179.2022
501.2234, 177.9604
501.7055, 176.3623
502.1877, 173.9406
502.6698, 171.6270
503.1519, 169.5131
503.6340, 167.5976
504.1161, 165.8403
504.5982, 164.3393
505.0804, 162.7903
505.5625, 161.0015
506.0446, 158.9361
506.5267, 157.2527
507.0088, 156.0337
507.4909, 154.9257
507.9731, 153.4661
508.4552, 151.6911
508.9373, 150.1657
509.4194, 149.0294
509.9015, 148.1247
510.3836, 147.2851
510.8658, 146.4853
511.3479, 145.6325
511.8300, 144.5006
512.3121, 143.3736
512.7943, 142.7090
513.2764, 142.4884
513.7585, 142.1535
514.2406, 141.1640
514.7227, 139.9885
515.2048, 139.0652
515.6870, 138.4892
516.1691, 138.1524
516.6512, 138.4070
517.1333, 138.8049
517.6154, 138.6105
518.0975, 136.7827
518.5797, 135.3496
519.0618, 134.8878
519.5439, 135.3252
520.0260, 135.5293
520.5081, 135.3990
520.9902, 135.1816
521.4724, 134.9818
521.9545, 134.7686
522.4366, 134.7670
522.9187, 135.0620
523.4008, 135.3937
523.8829, 135.3307
524.3651, 134.9076
524.8472, 134.6747
525.3293, 134.7811
525.8114, 135.1660
526.2935, 135.8637
526.7756, 136.8079
527.2578, 137.6278
527.7399, 138.0378
528.2220, 138.2448
528.7041, 138.2473
529.1862, 138.0186
529.6683, 138.4924
530.1505, 141.0581
530.6326, 144.2082
531.1147, 146.4515
531.5968, 146.9215
532.0789, 147.1765
532.5610, 147.3102
533.0432, 147.5026
533.5253, 148.1342
534.0074, 149.2956
534.4895, 150.8451
534.9716, 152.8601
535.4537, 155.3163
535.9359, 157.6649
536.4180, 159.8336
536.9001, 162.0028
537.3822, 164.2395
537.8643, 166.5004
538.3464, 169.1941
538.8286, 172.3692
539.3107, 175.8789
539.7928, 179.8111
540.2749, 184.0555
540.7570, 188.0553
541.2391, 191.4946
541.7213, 194.7643
542.2034, 198.3846
542.6855, 202.2615
543.1676, 206.1391
543.6497, 209.9641
544.1318, 213.7025
544.6140, 217.2518
545.0961, 220.5848
545.5782, 224.1086
546.0603, 228.3766
546.5424, 232.7401
547.0245, 236.6134
547.5067, 239.0150
547.9888, 242.1901
548.4709, 246.7183
548.9530, 251.9893
549.4351, 257.0268
549.9172, 261.9047
550.3994, 266.4011
550.8815, 270.3089
551.3636, 273.7476
551.8457, 277.4398
552.3278, 281.4614
552.8099, 285.3776
553.2921, 288.9943
553.7742, 292.2923
554.2563, 295.1502
554.7384, 297.5797
555.2205, 299.5339
555.7026, 300.9368
556.1848, 301.8624
556.6669, 302.4191
557.1490, 302.4499
557.6311, 302.4278
558.1132, 302.6678
558.5953, 303.1377
559.0775, 303.7713
559.5596, 304.4069
560.0417, 305.3102
560.5238, 306.4555
561.0059, 307.8406
561.4880, 310.0366
561.9702, 313.8138
562.4523, 317.8312
562.9344, 321.4136
563.4165, 324.1976
563.8986, 327.5516
564.3807, 331.6870
564.8629, 336.1808
565.3450, 340.5450
565.8271, 344.8545
566.3092, 348.7188
566.7913, 352.0039
567.2734, 354.8825
567.7556, 357.7534
568.2377, 360.5798
568.7198, 362.8328
569.2019, 363.9651
569.6840, 364.4997
570.1661, 364.9495
570.6483, 365.3663
571.1304, 366.3202
571.6125, 368.1648
572.0946, 370.7121
572.5767, 373.7000
573.0588, 376.9094
573.5410, 381.1092
574.0231, 386.5003
574.5052, 393.0168
574.9873, 400.5650
575.4694, 409.5936
575.9515, 419.1339
576.4337, 428.8051
576.9158, 438.9729
577.3979, 450.5599
577.8800, 463.6242
578.3621, 477.9654
578.8442, 493.7697
579.3264, 510.8797
579.8085, 527.8642
580.2906, 544.8297
580.7727, 562.1404
581.2548, 580.2620
581.7369, 599.0818
582.2190, 617.9184
582.7011, 636.9495
583.1832, 656.1269
583.6653, 675.9152
584.1475, 695.7582
584.6296, 714.8408
585.1117, 733.5702
585.5938, 750.7919
586.0759, 766.0482
586.5580, 779.4221
587.0402, 790.5095
587.5223, 799.7939
588.0044, 806.1087
588.4865, 809.0889
588.9686, 808.7131
589.4507, 805.9144
589.9329, 800.5018
590.4150, 793.0746
590.8971, 784.0358
591.3792, 773.3611
591.8613, 760.7737
592.3434, 746.1830
592.8256, 729.8100
593.3077, 711.7056
593.7898, 691.9265
594.2719, 671.0944
594.7540, 649.1197
595.2361, 626.2330
595.7183, 602.8168
596.2004, 578.8585
596.6825, 554.5447
597.1646, 529.1511
597.6467, 504.0484
598.1288, 479.9088
598.6110, 456.6455
599.0931, 434.2207
599.5752, 412.3301
600.0573, 391.5717
600.5394, 371.9388
601.0215, 353.2873
601.5037, 336.0802
601.9858, 320.4954
602.4679, 306.1234
602.9500, 292.7748
603.4321, 280.3055
603.9142, 269.2987
604.3964, 259.8553
604.8785, 251.5959
605.3606, 244.0770
605.8427, 237.3101
606.3248, 231.3890
606.8069, 226.4989
607.2891, 222.2511
607.7712, 217.7317
608.2533, 213.3283
608.7354, 210.2641
609.2175, 210.6857
609.6996, 211.4678
610.1818, 210.5128
610.6639, 207.5618
611.1460, 205.0767
611.6281, 203.5498
612.1102, 202.6472
612.5923, 202.1750
613.0745, 202.1182
613.5566, 202.6229
614.0387, 204.0324
614.5208, 205.5456
615.0029, 205.8389
615.4850, 204.7913
615.9672, 204.7593
616.4493, 206.4627
616.9314, 208.9466
617.4135, 210.5158
617.8956, 211.3409
618.3777, 212.1042
618.8599, 213.1743
619.3420, 214.3055
619.8241, 215.2185
620.3062, 215.9514
620.7883, 216.7283
621.2704, 217.8129
621.7526, 218.8298
622.2347, 219.4739
622.7168, 219.6041
623.1989, 220.0269
623.6810, 221.1131
624.1631, 222.2702
624.6453, 223.0630
625.1274, 223.2332
625.6095, 223.8371
626.0916, 225.0425
626.5737, 226.4643
627.0558, 227.5345
627.5380, 228.2717
628.0201, 229.0832
628.5022, 230.0816
628.9843, 231.1902
629.4664, 232.2345
629.9485, 233.2693
630.4307, 234.4552
630.9128, 235.8042
631.3949, 237.3987
631.8770, 239.2920
632.3591, 241.4916
632.8412, 243.9214
633.3234, 246.5762
633.8055, 249.4709
634.2876, 252.5997
634.7697, 255.9941
635.2518, 259.5302
635.7339, 263.1388
636.2161, 266.9886
636.6982, 271.3432
637.1803, 276.3445
637.6624, 280.6757
638.1445, 284.1419
638.6266, 287.1287
639.1088, 290.3128
639.5909, 293.4819
640.0730, 295.8274
640.5551, 297.0151
641.0372, 297.4463
641.5193, 297.7067
642.0015, 297.5524
642.4836, 296.4305
642.9657, 293.8409
643.4478, 290.4892
643.9299, 286.5503
644.4120, 282.0844
644.8942, 277.3353
645.3763, 272.3733
645.8584, 267.0921
646.3405, 261.2589
646.8226, 254.8658
647.3047, 248.9589
647.7869, 243.7670
648.2690, 238.5621
648.7511, 232.6512
649.2332, 226.1903
649.7153, 220.6191
650.1974, 216.1500
650.6796, 212.1215
651.1617, 208.0642
651.6438, 203.9454
652.1259, 199.7478
652.6080, 195.2792
653.0901, 190.9803
653.5723, 187.2059
654.0544, 183.7423
654.5365, 180.3247
655.0186, 176.7044
655.5007, 173.3323
655.9828, 170.3775
656.4650, 167.7429
656.9471, 165.1415
657.4292, 162.5141
657.9113, 160.0625
658.3934, 157.8887
658.8755, 155.9494
659.3577, 153.9908
659.8398, 151.9828
660.3219, 150.0541
660.8040, 148.1284
661.2861, 146.3578
661.7682, 145.1735
662.2504, 144.5911
662.7325, 143.9880
663.2146, 142.9321
663.6967, 141.6388
664.1788, 140.2790
664.6609, 138.7855
665.1431, 137.4904
665.6252, 136.4701
666.1073, 135.6993
666.5894, 135.1533
667.0715, 134.9895
667.5536, 134.7277
668.0358, 134.2931
668.5179, 133.7947
669.0000, 133.4770
669.4821, 133.3458
669.9642, 133.0313
670.4464, 132.3261
670.9285, 131.5137
671.4106, 131.1832
671.8927, 131.2020
672.3748, 131.0817
672.8569, 130.2930
673.3391, 129.4978
673.8212, 129.2506
674.3033, 129.4852
674.7854, 129.6781
675.2675, 129.7922
675.7496, 129.7150
676.2318, 129.2879
676.7139, 128.4456
677.1960, 128.0106
677.6781, 128.0997
678.1602, 128.3786
678.6423, 128.7023
679.1245, 129.0747
679.6066, 129.1119
680.0887, 128.7622
680.5708, 128.3277
681.0529, 128.0567
681.5350, 127.9393
682.0172, 127.9789
682.4993, 128.2200
682.9814, 128.4651
683.4635, 128.6481
683.9456, 128.7215
684.4277, 128.6198
684.9099, 128.0033
685.3920, 127.5973
685.8741, 127.6131
686.3562, 127.8986
686.8383, 128.2271
687.3204, 128.6670
687.8026, 128.9446
688.2847, 128.9202
688.7668, 128.7338
689.2489, 128.8312
689.7310, 129.2023
690.2131, 129.5753
690.6953, 129.6952
691.1774, 129.7942
691.6595, 130.4819
692.1416, 131.5947
692.6237, 132.2258
693.1058, 130.9457
693.5880, 129.7585
694.0701, 130.4358
694.5522, 133.3341
695.0343, 134.8301
695.5164, 133.3768
695.9985, 131.4329
696.4807, 130.1074
696.9628, 129.4323
697.4449, 129.3659
697.9270, 130.0603
698.4091, 130.9370
698.8912, 131.5094
699.3734, 131.7845
699.8555, 131.7590
700.3376, 131.3858
700.8197, 130.9739
701.3018, 130.8503
701.7839, 130.8772
702.2661, 130.8386
702.7482, 130.5535
703.2303, 130.4025
703.7124, 130.5322
704.1945, 130.8839
704.6766, 131.3821
705.1588, 132.1566
705.6409, 132.8712
706.1230, 133.5882
706.6051, 134.1609
707.0872, 134.0383
707.5693, 133.1318
708.0515, 132.7724
708.5336, 133.6984
709.0157, 135.1780
709.4978, 135.7056
709.9799, 135.4453
710.4620, 135.0640
710.9442, 134.8860
711.4263, 134.7575
711.9084, 134.5826
712.3905, 134.3586
712.8726, 134.1024
713.3547, 133.4872
713.8369, 133.1698
714.3190, 133.4826
714.8011, 134.4493
715.2832, 135.3202
715.7653, 136.1741
716.2474, 136.7508
716.7296, 136.6995
717.2117, 136.1400
717.6938, 136.1160
718.1759, 136.6736
718.6580, 137.2563
719.1401, 137.3155
719.6223, 137.1405
720.1044, 137.1272
720.5865, 137.3597
721.0686, 137.5875
721.5507, 137.4238
722.0328, 137.3592
722.5150, 137.8803
722.9971, 139.9977
723.4792, 140.9123
723.9613, 140.0078
724.4434, 138.5623
724.9255, 138.0441
725.4077, 138.4966
725.8898, 139.3131
726.3719, 140.5487
726.8540, 141.6680
727.3361, 141.7589
727.8182, 141.1413
728.3004, 140.6431
728.7825, 140.5442
729.2646, 140.6318
729.7467, 140.8850
730.2288, 141.2047
730.7109, 141.4141
731.1931, 141.1175
731.6752, 141.1510
732.1573, 141.8779
732.6394, 142.9790
733.1215, 143.5309
733.6036, 143.4055
734.0858, 143.2205
734.5679, 143.1005
735.0500, 143.1014
735.5321, 143.5019
736.0142, 144.2226
736.4963, 144.7797
736.9785, 144.7029
737.4606, 144.4941
737.9427, 144.7236
738.4248, 145.2820
738.9069, 145.6046
739.3890, 145.0528
739.8712, 144.6292
740.3533, 144.8756
740.8354, 145.7564
741.3175, 146.4674
741.7996, 147.0069
742.2817, 147.3906
742.7639, 147.5580
743.2460, 147.5500
743.7281, 147.7670
744.2102, 148.2099
744.6923, 148.5467
745.1744, 148.2975
745.6566, 147.9053
746.1387, 148.0551
746.6208, 148.8167
747.1029, 149.3254
747.5850, 148.7746
748.0671, 148.1177
748.5493, 148.0258
749.0314, 148.7038
749.5135, 149.3868
749.9956, 150.2456
750.4777, 150.8423
750.9598, 150.6179
751.4420, 149.5921
751.9241, 149.2457
752.4062, 149.7291
752.8883, 150.4613
753.3704, 151.0725
753.8525, 151.4602
754.3347, 151.3365
754.8168, 150.4715
755.2989, 149.8340
755.7810, 150.1819
756.2631, 150.8974
756.7452, 151.3518
757.2274, 151.2043
757.7095, 151.2262
758.1916, 151.5439
758.6737, 151.8899
759.1558, 151.8119
759.6379, 151.2711
760.1201, 151.2432
760.6022, 151.9899
761.0843, 152.9201
761.5664, 153.2771
762.0485, 153.2297
762.5306, 153.1159
763.0128, 152.9752
763.4949, 152.9034
763.9770, 152.9751
764.4591, 153.1427
764.9412, 153.3374
765.4233, 153.5533
765.9055, 153.7961
766.3876, 154.0912
766.8697, 154.3961
767.3518, 154.5963
767.8339, 154.6768
768.3160, 154.9105
768.7982, 155.4355
769.2803, 156.0171
769.7624, 156.2944
770.2445, 156.3331
770.7266, 156.3008
771.2087, 156.0533
771.6909, 155.9793
772.1730, 156.3834
772.6551, 157.1026
773.1372, 157.7641
773.6193, 158.4241
774.1014, 158.8554
774.5836, 158.8865
775.0657, 158.7240
775.5478, 159.0737
776.0299, 159.9688
776.5120, 160.5980
776.9941, 160.5165
777.4763, 160.1644
777.9584, 160.2672
778.4405, 160.7305
778.9226, 161.2441
779.4047, 161.8243
779.8868, 162.2592
780.3690, 162.3367
780.8511, 162.1534
781.3332, 162.1351
781.8153, 162.3759
782.2974, 162.6689
782.7795, 162.9561
783.2617, 163.2539
783.7438, 163.6694
784.2259, 164.2070
784.7080, 164.6714
785.1901, 164.9296
785.6722, 165.0936
786.1544, 165.3085
786.6365, 165.5754
787.1186, 165.8997
787.6007, 166.2295
788.0828, 166.6629
788.5649, 167.3935
789.0471, 168.3422
789.5292, 168.8694
790.0113, 168.7978
790.4934, 168.6105
790.9755, 168.3600
791.4576, 168.1461
791.9398, 168.5395
792.4219, 169.5105
792.9040, 170.3666
793.3861, 170.4132
793.8682, 170.3005
794.3503, 171.0669
794.8325, 172.4810
795.3146, 173.5172
795.7967, 172.4798
796.2788, 172.1577
796.7609, 174.9377
797.2430, 180.1694
797.7252, 181.8987
798.2073, 178.6701
798.6894, 175.4626
799.1715, 174.3726
799.6536, 174.9318
800.1357, 175.6792
800.6179, 176.5695
801.1000, 177.1487
801.5821, 176.6458
802.0642, 176.0656
802.5463, 176.2914
803.0284, 177.3138
803.5106, 178.9195
803.9927, 182.6213
804.4748, 185.1957
804.9569, 185.0476
805.4390, 182.5573
805.9211, 181.1131
806.4033, 180.8880
806.8854, 180.9592
807.3675, 180.9314
807.8496, 180.8597
808.3317, 180.8992
808.8138, 181.0371
809.2960, 181.1990
809.7781, 181.3990
810.2602, 181.5606
810.7423, 181.4898
811.2244, 181.2631
811.7065, 181.4678
812.1887, 182.8362
812.6708, 183.8129
813.1529, 183.7553
813.6350, 182.8942
814.1171, 182.5106
814.5992, 182.6004
815.0814, 183.3209
815.5635, 185.4893
816.0456, 187.9148
816.5277, 188.2619
817.0098, 186.9869
817.4919, 185.8989
817.9741, 186.1073
818.4562, 186.5163
818.9383, 186.6599
819.4204, 186.5448
819.9025, 186.3944
820.3846, 186.1563
820.8668, 185.9935
821.3489, 185.9728
821.8310, 186.0608
822.3131, 186.1615
822.7952, 186.2733
823.2773, 186.3812
823.7595, 186.4607
824.2416, 186.5502
824.7237, 186.7094
825.2058, 186.9155
825.6879, 187.0943
826.1700, 187.0403
826.6522, 187.1813
827.1343, 187.7478
827.6164, 188.5713
828.0985, 189.0806
828.5806, 189.2627
829.0627, 189.1973
829.5449, 188.7871
830.0270, 188.2953
830.5091, 188.4588
830.9912, 189.0000
831.4733, 189.0560
831.9554, 187.3832
832.4376, 185.9715
832.9197, 186.1655
833.4018, 187.4180
833.8839, 188.2760
834.3660, 188.5516
834.8481, 188.5847
835.3303, 188.3484
835.8124, 187.9829
836.2945, 187.8013
836.7766, 187.7917
837.2587, 187.8140
837.7408, 187.8061
838.2230, 187.8423
838.7051, 187.9303
839.1872, 188.1337
839.6693, 188.5680
840.1514, 189.7796
840.6335, 190.5989
841.1157, 190.5279
841.5978, 190.0386
842.0799, 189.7626
842.5620, 189.7363
843.0441, 189.7388
843.5262, 189.7420
844.0084, 189.7418
844.4905, 189.7523
844.9726, 189.7528
845.4547, 189.6493
845.9368, 189.2859
846.4189, 189.1498
846.9011, 189.8750
847.3832, 190.8209
847.8653, 191.2083
848.3474, 190.4627
848.8295, 190.1123
849.3116, 190.3214
849.7938, 190.7163
850.2759, 190.8391
850.7580, 190.7435
851.2401, 190.8905
851.7222, 191.3835
852.2043, 191.8114
852.6865, 191.6823
853.1686, 191.3399
853.6507, 191.1910
854.1328, 191.4002
854.6149, 191.4801
855.0970, 191.1108
855.5792, 190.7811
856.0613, 190.8023
856.5434, 191.1901
857.0255, 191.9310
857.5076, 193.1171
857.9897, 193.9478
858.4719, 193.2095
858.9540, 191.8361
859.4361, 191.5022
859.9182, 192.3462
860.4003, 193.2095
860.8824, 193.6645
861.3646, 193.8565
861.8467, 193.8051
862.3288, 193.5135
862.8109, 193.2925
863.2930, 193.1303
863.7751, 193.0950
864.2573, 193.3430
864.7394, 193.7395
865.2215, 193.7207
865.7036, 193.3504
866.1857, 193.0557
866.6678, 193.1649
867.1500, 193.3900
867.6321, 193.5143
868.1142, 193.5555
868.5963, 193.7403
869.0784, 194.3725
869.5605, 194.6355
870.0427, 194.1186
870.5248, 193.1394
871.0069, 192.8561
871.4890, 193.2098
871.9711, 193.5531
872.4532, 193.5494
872.9354, 193.4621
873.4175, 193.6717
873.8996, 193.9968
874.3817, 194.0438
874.8638, 193.2693
875.3459, 192.7227
875.8281, 192.4201
876.3102, 192.5363
876.7923, 193.7528
877.2744, 196.2275
877.7565, 197.4232
878.2386, 196.5695
878.7208, 195.0066
879.2029, 194.3752
879.6850, 194.3025
880.1671, 194.1260
880.6492, 193.5710
881.1313, 193.0990
881.6135, 192.9392
882.0956, 192.8975
882.5777, 192.7785
883.0598, 192.5516
883.5419, 192.3163
884.0240, 192.0200
884.5062, 191.9305
884.9883, 192.5588
885.4704, 193.5574
885.9525, 194.0855
886.4346, 194.0192
886.9167, 193.9153
887.3989, 194.2065
887.8810, 194.4885
888.3631, 194.3988
888.8452, 193.8412
889.3273, 193.5958
889.8094, 193.7689
890.2916, 193.9617
890.7737, 193.8625
891.2558, 193.5895
891.7379, 193.6172
892.2200, 193.9160
892.7021, 194.2601
893.1843, 194.4713
893.6664, 194.7188
894.1485, 195.1898
894.6306, 195.8354
895.1127, 196.2911
895.5948, 196.4910
896.0770, 196.5965
896.5591, 196.5863
897.0412, 196.5723
897.5233, 197.0058
898.0054, 197.7822
898.4875, 198.1950
898.9697, 197.6902
899.4518, 197.1565
899.9339, 197.3978
900.4160, 198.1070
900.8981, 198.7637
901.3802, 199.2726
901.8624, 199.6785
902.3445, 199.9029
902.8266, 200.1206
903.3087, 200.5714
903.7908, 201.2448
904.2729, 201.9684
904.7551, 202.7177
905.2372, 203.5127
905.7193, 204.5061
906.2014, 205.4858
906.6835, 206.1718
907.1656, 206.4221
907.6478, 206.7879
908.1299, 207.3452
908.6120, 208.0477
909.0941, 208.9057
909.5762, 209.9289
910.0583, 210.7211
910.5405, 211.2717
911.0226, 212.0962
911.5047, 213.9564
911.9868, 216.0245
912.4689, 217.1977
912.9510, 217.5998
913.4332, 218.4141
913.9153, 220.3830
914.3974, 222.3814
914.8795, 224.1120
915.3616, 225.6129
915.8438, 226.9000
916.3259, 227.9724
916.8080, 229.4310
917.2901, 231.6194
917.7722, 234.1406
918.2543, 236.6330
918.7365, 239.0818
919.2186, 241.4194
919.7007, 243.4511
920.1828, 245.6304
920.6649, 247.9955
921.1470, 250.5337
921.6292, 253.2168
922.1113, 256.0498
922.5934, 259.0721
923.0755, 262.3004
923.5576, 265.7306
924.0397, 269.3603
924.5219, 273.1605
925.0040, 276.9683
925.4861, 280.7242
925.9682, 284.8932
926.4503, 289.8150
926.9324, 294.9552
927.4146, 300.0083
927.8967, 304.9587
928.3788, 310.4888
928.8609, 316.6706
929.3430, 322.8401
929.8251, 328.0039
930.3073, 333.3819
930.7894, 340.6358
931.2715, 349.5572
931.7536, 358.7061
932.2357, 367.4589
932.7178, 376.7770
933.2000, 386.9271
933.6821, 397.7899
934.1642, 409.2376
934.6463, 421.1669
935.1284, 434.4070
935.6105, 448.8972
936.0927, 464.8196
936.5748, 481.8456
937.0569, 500.2948
937.5390, 520.9318
938.0211, 544.1183
938.5032, 568.8397
938.9854, 594.3666
939.4675, 621.5621
939.9496, 651.6906
940.4317, 684.6501
940.9138, 720.2490
941.3959, 758.3211
941.8781, 799.2060
942.3602, 842.2220
942.8423, 888.2347
943.3244, 938.4784
943.8065, 993.4100
944.2886, 1052.176
944.7708, 1113.810
945.2529, 1180.453
945.7350, 1252.259
946.2171, 1329.482
946.6992, 1415.834
947.1813, 1510.187
947.6635, 1610.616
948.1456, 1715.398
948.6277, 1826.898
949.1098, 1947.519
949.5919, 2076.439
950.0740, 2212.739
950.5562, 2357.326
951.0383, 2506.023
951.5204, 2658.793
952.0025, 2815.036
952.4846, 2974.464
952.9667, 3136.884
953.4489, 3300.143
953.9310, 3464.410
954.4131, 3632.176
954.8952, 3806.757
955.3773, 3987.894
955.8594, 4174.246
956.3416, 4367.094
956.8237, 4560.669
957.3058, 4753.035
957.7879, 4950.223
958.2700, 5156.040
958.7521, 5366.311
959.2343, 5570.704
959.7164, 5769.607
960.1985, 5965.705
960.6806, 6161.689
961.1627, 6351.851
961.6448, 6532.453
962.1270, 6703.331
962.6091, 6861.901
963.0912, 7015.425
963.5733, 7143.413
964.0554, 7245.892
964.5375, 7318.720
965.0197, 7356.130
965.5018, 7358.690
965.9839, 7330.573
966.4660, 7274.544
966.9481, 7172.606
967.4302, 7007.361
967.9124, 6797.978
968.3945, 6557.485
968.8766, 6283.868
969.3587, 5989.251
969.8408, 5666.778
970.3229, 5341.108
970.8051, 5016.881
971.2872, 4699.927
971.7693, 4397.119
972.2514, 4107.157
972.7335, 3834.888
973.2156, 3581.035
973.6978, 3346.950
974.1799, 3135.284
974.6620, 2940.865
975.1441, 2759.212
975.6262, 2590.792
976.1083, 2438.592
976.5905, 2304.421
977.0726, 2183.738
977.5547, 2072.244
978.0368, 1968.684
978.5189, 1873.234
979.0010, 1786.056
979.4832, 1706.260
979.9653, 1633.920
980.4474, 1567.706
980.9295, 1508.686
981.4116, 1456.244
981.8937, 1407.821
982.3759, 1363.429
982.8580, 1323.364
983.3401, 1288.010
983.8222, 1256.713
984.3043, 1230.033
984.7864, 1207.184
985.2686, 1186.586
985.7507, 1167.373
986.2328, 1151.577
986.7149, 1140.081
987.1970, 1130.898
987.6791, 1120.670
988.1613, 1110.459
988.6434, 1103.244
989.1255, 1099.705
989.6076, 1097.866
990.0897, 1096.774
990.5718, 1096.826
991.0540, 1098.479
991.5361, 1101.751
992.0182, 1105.129
992.5003, 1108.313
992.9824, 1113.533
993.4645, 1122.556
993.9467, 1133.966
994.4288, 1144.949
994.9109, 1156.233
995.3930, 1169.489
995.8751, 1185.721
996.3572, 1203.766
996.8394, 1223.222
997.3215, 1244.549
997.8036, 1268.183
998.2857, 1294.199
998.7678, 1322.188
999.2499, 1351.555
999.7321, 1383.488
1000.214, 1419.393
1000.696, 1457.528
1001.178, 1495.934
1001.661, 1533.888
1002.143, 1574.900
1002.625, 1619.049
1003.107, 1665.712
1003.589, 1714.683
1004.071, 1766.024
1004.553, 1818.527
1005.035, 1872.570
1005.517, 1927.593
1006.000, 1984.725
1006.482, 2042.301
1006.964, 2098.274
1007.446, 2154.446
1007.928, 2212.201
1008.410, 2272.853
1008.892, 2331.850
1009.374, 2388.590
1009.857, 2444.880
1010.339, 2500.727
1010.821, 2556.614
1011.303, 2612.385
1011.785, 2668.556
1012.267, 2726.142
1012.749, 2786.366
1013.231, 2846.951
1013.713, 2907.747
1014.196, 2968.783
1014.678, 3029.640
1015.160, 3090.573
1015.642, 3151.749
1016.124, 3212.906
1016.606, 3274.758
1017.088, 3337.412
1017.570, 3400.827
1018.052, 3464.353
1018.535, 3529.555
1019.017, 3592.015
1019.499, 3651.871
1019.981, 3708.740
1020.463, 3761.481
1020.945, 3811.427
1021.427, 3862.668
1021.909, 3914.423
1022.392, 3960.485
1022.874, 3997.809
1023.356, 4028.628
1023.838, 4053.966
1024.320, 4073.446
1024.802, 4086.573
1025.284, 4093.637
1025.766, 4089.229
1026.249, 4072.528
1026.731, 4043.542
1027.213, 4001.711
1027.695, 3947.914
1028.177, 3882.547
1028.659, 3805.312
1029.141, 3718.836
1029.623, 3623.244
1030.105, 3518.928
1030.588, 3405.615
1031.070, 3284.972
1031.552, 3162.115
1032.034, 3038.483
1032.516, 2915.071
1032.998, 2793.077
1033.480, 2672.729
1033.962, 2551.766
1034.444, 2432.327
1034.927, 2318.821
1035.409, 2210.533
1035.891, 2106.977
1036.373, 2006.825
1036.855, 1911.872
1037.337, 1820.696
1037.819, 1734.228
1038.301, 1655.010
1038.784, 1582.410
1039.266, 1514.802
1039.748, 1453.479
1040.230, 1394.068
1040.712, 1335.990
1041.194, 1280.028
1041.676, 1230.341
1042.158, 1185.966
1042.641, 1144.859
1043.123, 1106.803
1043.605, 1070.780
1044.087, 1036.974
1044.569, 1005.525
1045.051, 976.2761
1045.533, 949.4430
1046.015, 923.7584
1046.497, 899.2302
1046.979, 876.3837
1047.462, 856.6863
1047.944, 838.6789
1048.426, 820.4615
1048.908, 802.3704
1049.390, 785.8993
1049.872, 772.9573
1050.354, 759.5505
1050.836, 744.9503
1051.319, 730.1319
1051.801, 716.5667
1052.283, 703.9662
1052.765, 691.8339
1053.247, 680.0919
1053.729, 669.2341
1054.211, 660.1147
1054.693, 651.4603
1055.176, 642.6569
1055.658, 633.6771
1056.140, 624.4403
1056.622, 614.8627
1057.104, 606.1321
1057.586, 598.8873
1058.068, 592.1833
1058.550, 584.6555
1059.032, 577.0463
1059.515, 570.1761
1059.997, 564.2900
1060.479, 559.1915
1060.961, 555.1603
1061.443, 551.3032
1061.925, 546.9795
1062.407, 542.3087
1062.889, 537.5931
1063.371, 532.8503
1063.854, 528.2672
1064.336, 523.3033
1064.818, 519.2379
1065.300, 517.2457
1065.782, 516.0435
1066.264, 513.5883
1066.746, 509.8172
1067.228, 507.1083
1067.711, 505.8314
1068.193, 504.8936
1068.675, 503.6583
1069.157, 502.0620
1069.639, 500.0612
1070.121, 497.6572
1070.603, 494.5888
1071.085, 490.5289
1071.568, 486.7671
1072.050, 483.8008
1072.532, 481.1381
1073.014, 477.7856
1073.496, 474.0184
1073.978, 470.3466
1074.460, 466.8037
1074.942, 463.6662
1075.424, 460.8438
1075.906, 458.5945
1076.389, 457.2083
1076.871, 456.5960
1077.353, 455.7088
1077.835, 454.6028
1078.317, 453.7656
1078.799, 453.6302
1079.281, 453.6757
1079.763, 453.5738
1080.245, 453.4630
1080.728, 453.6445
1081.210, 454.2607
1081.692, 454.4356
1082.174, 454.0595
1082.656, 453.5481
1083.138, 453.0132
1083.620, 452.7574
1084.102, 453.3197
1084.585, 454.6478
1085.067, 455.7693
1085.549, 456.5608
1086.031, 457.0769
1086.513, 457.1067
1086.995, 457.2274
1087.477, 458.8988
1087.959, 461.4853
1088.442, 463.1635
1088.924, 463.3322
1089.406, 463.7981
1089.888, 465.5331
1090.370, 467.5771
1090.852, 469.2589
1091.334, 470.7341
1091.816, 473.4417
1092.298, 477.3080
1092.781, 481.2656
1093.263, 484.7294
1093.745, 488.3414
1094.227, 492.7507
1094.709, 497.4963
1095.191, 501.9074
1095.673, 505.4868
1096.155, 510.4874
1096.637, 517.0637
1097.120, 524.2742
1097.602, 531.1591
1098.084, 538.3181
1098.566, 546.3844
1099.048, 555.3928
1099.530, 565.2527
1100.012, 576.0602
1100.494, 587.4778
1100.977, 599.2516
1101.459, 611.8123
1101.941, 625.9590
1102.423, 641.2081
1102.905, 656.6894
1103.387, 672.2359
1103.869, 688.4354
1104.351, 705.7946
1104.833, 723.8037
1105.316, 742.2227
1105.798, 761.3297
1106.280, 781.9903
1106.762, 804.2000
1107.244, 825.5628
1107.726, 845.4364
1108.208, 865.6638
1108.690, 887.7746
1109.172, 910.7266
1109.655, 933.7610
1110.137, 957.1120
1110.619, 977.6815
1111.101, 995.3391
1111.583, 1012.081
1112.065, 1029.574
1112.547, 1045.789
1113.029, 1058.467
1113.512, 1068.093
1113.994, 1075.585
1114.476, 1081.900
1114.958, 1084.238
1115.440, 1082.527
1115.922, 1077.171
1116.404, 1068.377
1116.886, 1056.253
1117.369, 1040.491
1117.851, 1021.459
1118.333, 1000.623
1118.815, 978.3556
1119.297, 954.1848
1119.779, 927.7159
1120.261, 899.8984
1120.743, 871.5100
1121.225, 842.7459
1121.708, 815.2189
1122.190, 788.6965
1122.672, 761.8473
1123.154, 732.8805
1123.636, 704.6093
1124.118, 678.0576
1124.600, 653.0511
1125.082, 629.0735
1125.564, 606.0703
1126.047, 584.5314
1126.529, 564.7891
1127.011, 545.7315
1127.493, 526.1479
1127.975, 507.3071
1128.457, 490.4223
1128.939, 475.3268
1129.421, 460.5375
1129.904, 445.8861
1130.386, 432.4291
1130.868, 420.8568
1131.350, 409.9189
1131.832, 397.8830
1132.314, 385.7354
1132.796, 375.3224
1133.278, 367.3278
1133.760, 358.7544
1134.243, 349.3190
1134.725, 340.3398
1135.207, 332.5771
1135.689, 325.7262
1136.171, 319.8472
1136.653, 314.5114
1137.135, 308.6960
1137.617, 301.1903
1138.099, 294.5253
1138.582, 288.9438
1139.064, 284.0733
1139.546, 279.9857
1140.028, 276.2733
1140.510, 271.8573
1140.992, 266.7899
1141.474, 261.9330
1141.956, 257.3868
1142.439, 253.4128
1142.921, 250.1741
1143.403, 247.3013
1143.885, 244.1742
1144.367, 240.9002
1144.849, 237.6762
1145.331, 234.5458
1145.813, 231.4566
1146.296, 228.3149
1146.778, 225.2423
1147.260, 222.2793
1147.742, 219.4173
1148.224, 216.5757
1148.706, 213.7817
1149.188, 211.2739
1149.670, 209.0718
1150.152, 207.2225
1150.635, 206.0817
1151.117, 205.0238
1151.599, 203.5191
1152.081, 201.6237
1152.563, 199.9864
1153.045, 198.6064
1153.527, 196.9864
1154.009, 194.7700
1154.491, 192.6265
1154.974, 191.2372
1155.456, 190.2711
1155.938, 189.4719
1156.420, 188.9073
1156.902, 187.7112
1157.384, 185.8061
1157.866, 183.9527
1158.348, 182.6781
1158.831, 181.5875
1159.313, 180.2643
1159.795, 178.8176
1160.277, 177.4370
1160.759, 176.1818
1161.241, 174.9347
1161.723, 173.7112
1162.205, 172.4155
1162.688, 170.7748
1163.170, 169.1488
1163.652, 168.2000
1164.134, 167.7049
1164.616, 166.9655
1165.098, 165.5819
1165.580, 164.4131
1166.062, 163.5502
1166.544, 162.8511
1167.026, 162.3036
1167.509, 161.7670
1167.991, 161.0269
1168.473, 160.0652
1168.955, 158.8886
1169.437, 157.0634
1169.919, 155.6968
1170.401, 155.1101
1170.883, 154.7597
1171.366, 153.8185
1171.848, 152.5467
1172.330, 151.4960
1172.812, 150.7320
1173.294, 150.0555
1173.776, 149.4654
1174.258, 148.8766
1174.740, 148.3226
1175.223, 147.6954
1175.705, 146.6680
1176.187, 145.4038
1176.669, 144.4095
1177.151, 143.7946
1177.633, 143.3036
1178.115, 143.0799
1178.597, 142.6354
1179.079, 141.6400
1179.562, 140.3813
1180.044, 139.8708
1180.526, 139.9131
1181.008, 139.7919
1181.490, 139.3270
1181.972, 138.6196
1182.454, 137.6066
1182.936, 136.4097
1183.418, 134.7272
1183.901, 132.9376
1184.383, 133.7479
1184.865, 136.6198
1185.347, 138.8926
1185.829, 139.8080
1186.311, 139.4088
1186.793, 136.7771
1187.275, 133.5765
1187.758, 130.9155
1188.240, 128.8144
1188.722, 127.4242
1189.204, 126.6633
1189.686, 125.9332
1190.168, 124.8838
1190.650, 123.8694
1191.132, 123.1556
1191.615, 122.4851
1192.097, 121.3653
1192.579, 119.7603
1193.061, 119.9610
1193.543, 121.7889
1194.025, 123.0414
1194.507, 122.1804
1194.989, 120.6331
1195.471, 118.8204
1195.953, 116.9730
1196.436, 115.3437
1196.918, 113.9308
1197.400, 112.9056
1197.882, 112.2700
1198.364, 111.6169
1198.846, 110.3739
1199.328, 109.3602
1199.810, 109.4577
1200.293, 109.9325
1200.775, 109.4343
1201.257, 107.9231
1201.739, 107.1237
1202.221, 107.1955
1202.703, 107.1252
1203.185, 105.8565
1203.667, 104.5137
1204.150, 103.8787
1204.632, 103.6827
1205.114, 103.3167
1205.596, 102.7704
1206.078, 102.4123
1206.560, 102.3025
1207.042, 102.1616
1207.524, 101.7413
1208.006, 101.2411
1208.489, 100.7676
1208.971, 100.3326
1209.453, 100.0171
1209.935, 99.82051
1210.417, 99.45910
1210.899, 98.86971
1211.381, 98.24018
1211.863, 97.58821
1212.345, 97.08198
1212.828, 97.00384
1213.310, 97.17758
1213.792, 96.93042
1214.274, 96.27394
1214.756, 95.69255
1215.238, 95.27686
1215.720, 95.04166
1216.202, 94.56168
1216.685, 94.67948
1217.167, 96.61746
1217.649, 99.74856
1218.131, 100.8462
1218.613, 99.98018
1219.095, 98.40788
1219.577, 96.25879
1220.059, 94.40857
1220.542, 93.62349
1221.024, 93.31834
1221.506, 93.01577
1221.988, 92.74332
1222.470, 92.93417
1222.952, 93.53310
1223.434, 93.76842
1223.916, 93.24025
1224.398, 92.71884
1224.880, 92.83867
1225.363, 93.06380
1225.845, 92.92307
1226.327, 92.48704
1226.809, 92.47502
1227.291, 92.82796
1227.773, 93.00301
1228.255, 92.67384
1228.737, 92.40134
1229.220, 92.70298
1229.702, 93.01591
1230.184, 92.84386
1230.666, 92.26510
1231.148, 92.07632
1231.630, 92.21872
1232.112, 92.29093
1232.594, 92.04762
1233.077, 91.84991
1233.559, 91.88511
1234.041, 92.02802
1234.523, 92.20051
1235.005, 92.40074
1235.487, 92.60357
1235.969, 92.82236
1236.451, 93.14373
1236.933, 93.87676
1237.416, 94.28052
1237.898, 93.75626
1238.380, 93.10775
1238.862, 92.91318
1239.344, 93.09303
1239.826, 93.16727
1240.308, 93.16096
1240.790, 93.18382
1241.272, 93.28298
1241.755, 93.41886
1242.237, 93.54986
1242.719, 93.75191
1243.201, 94.13614
1243.683, 94.64228
1244.165, 95.07784
1244.647, 95.40900
1245.129, 95.49748
1245.612, 95.11364
1246.094, 94.70377
1246.576, 94.23135
1247.058, 93.94530
1247.540, 94.14176
1248.022, 94.66733
1248.504, 95.22192
1248.986, 95.75035
1249.469, 96.09222
1249.951, 95.83001
1250.433, 96.00414
1250.915, 96.90433
1251.397, 97.72615
1251.879, 97.52416
1252.361, 96.88071
1252.843, 96.99418
1253.325, 97.66942
1253.807, 98.20190
1254.290, 98.20319
1254.772, 98.52006
1255.254, 99.31889
1255.736, 99.99941
1256.218, 99.82654
1256.700, 99.35870
1257.182, 99.38026
1257.664, 99.77778
1258.147, 100.1679
1258.629, 100.4937
1259.111, 100.8413
1259.593, 101.2244
1260.075, 101.5815
1260.557, 101.9028
1261.039, 102.1358
1261.521, 102.0930
1262.004, 101.9445
1262.486, 102.1379
1262.968, 102.7444
1263.450, 103.4751
1263.932, 104.3358
1264.414, 104.9162
1264.896, 104.6279
1265.378, 104.2048
1265.860, 104.2359
1266.343, 104.5447
1266.825, 104.7465
1267.307, 104.8458
1267.789, 104.7288
1268.271, 104.3919
1268.753, 104.1686
1269.235, 104.3760
1269.717, 104.6666
1270.199, 104.7866
1270.682, 104.9000
1271.164, 105.3237
1271.646, 106.0097
1272.128, 106.3062
1272.610, 106.2025
1273.092, 106.0995
1273.574, 106.2440
1274.056, 106.4090
1274.539, 106.4815
1275.021, 106.5724
1275.503, 106.8196
1275.985, 107.2058
1276.467, 107.7638
1276.949, 108.4408
1277.431, 108.9167
1277.913, 108.8695
1278.396, 108.8518
1278.878, 108.9949
1279.360, 109.1472
1279.842, 109.0875
1280.324, 108.9344
1280.806, 108.9877
1281.288, 109.2030
1281.770, 109.2847
1282.252, 108.9839
1282.734, 108.9268
1283.217, 109.2742
1283.699, 109.5234
1284.181, 108.9247
1284.663, 108.0999
1285.145, 108.0185
1285.627, 108.4619
1286.109, 108.3928
1286.591, 107.4713
1287.074, 107.1868
1287.556, 107.7435
1288.038, 108.3398
1288.520, 108.3043
1289.002, 107.9922
1289.484, 107.6198
1289.966, 107.2297
1290.448, 106.8765
1290.931, 106.5575
1291.413, 106.3450
1291.895, 106.2417
1292.377, 106.0703
1292.859, 105.6118
1293.341, 105.1518
1293.823, 104.8775
1294.305, 104.6834
1294.787, 104.4132
1295.270, 104.0953
1295.752, 104.0571
1296.234, 104.2620
1296.716, 104.2699
1297.198, 103.6856
1297.680, 103.1096
1298.162, 102.7467
1298.644, 102.3937
1299.126, 101.6975
1299.609, 100.8705
1300.091, 100.6384
1300.573, 100.8745
1301.055, 100.8765
1301.537, 100.5027
##END=



