##NAMES=Beusite
##RRUFFID=R160031
##IDEAL CHEMISTRY=Mn^2+^Mn^2+^_2_(PO_4_)_2_
##LOCALITY=Santa Ana Pegmatite, Argentina
##OWNER=RRUFF
##SOURCE=Jaroslav Hyr≈°l
##DESCRIPTION=Orange massive
##STATUS=The identification of this mineral has been confirmed only by single crystal X-ray diffraction.
##URL=rruff.info/R160031
91.35754, 1408.688
91.83966, 1404.211
92.32178, 1374.125
92.80389, 1343.642
93.28601, 1315.575
93.76813, 1290.936
94.25024, 1269.608
94.73236, 1250.901
95.21448, 1236.361
95.69659, 1218.823
96.17871, 1202.035
96.66083, 1186.473
97.14294, 1171.471
97.62506, 1156.136
98.10718, 1140.339
98.58929, 1126.072
99.07141, 1115.038
99.55353, 1103.104
100.0356, 1087.682
100.5178, 1069.324
100.9999, 1051.110
101.4820, 1035.820
101.9641, 1023.942
102.4462, 1010.962
102.9283, 995.5061
103.4105, 979.2998
103.8926, 963.8232
104.3747, 949.2924
104.8568, 935.7421
105.3389, 923.7614
105.8210, 912.9813
106.3032, 902.0865
106.7853, 891.9228
107.2674, 881.6861
107.7495, 866.9928
108.2316, 843.5506
108.7137, 818.5687
109.1959, 796.4539
109.6780, 777.5114
110.1601, 761.1596
110.6422, 747.1462
111.1243, 735.9451
111.6064, 725.4216
112.0886, 715.4943
112.5707, 705.9417
113.0528, 696.7109
113.5349, 687.7518
114.0170, 679.1545
114.4991, 671.2175
114.9813, 664.7047
115.4634, 657.9162
115.9455, 650.4410
116.4276, 642.7452
116.9097, 635.4775
117.3918, 629.0011
117.8740, 623.1865
118.3561, 617.0696
118.8382, 609.4903
119.3203, 602.8597
119.8024, 598.2151
120.2845, 595.2596
120.7667, 592.9534
121.2488, 590.6425
121.7309, 588.4164
122.2130, 586.5743
122.6951, 586.1945
123.1772, 585.5424
123.6594, 582.8061
124.1415, 577.6552
124.6236, 572.0482
125.1057, 567.1009
125.5878, 562.7271
126.0699, 559.0251
126.5521, 556.5088
127.0342, 554.7147
127.5163, 552.1949
127.9984, 548.7156
128.4805, 544.7646
128.9626, 540.8438
129.4448, 536.7624
129.9269, 532.0984
130.4090, 526.5276
130.8911, 520.0511
131.3732, 512.7792
131.8553, 503.3811
132.3375, 494.2423
132.8196, 486.1929
133.3017, 479.3115
133.7838, 473.2854
134.2659, 467.8095
134.7480, 463.1283
135.2302, 458.4298
135.7123, 453.5915
136.1944, 448.8477
136.6765, 444.1813
137.1586, 439.6346
137.6407, 435.5714
138.1229, 432.6321
138.6050, 431.8570
139.0871, 430.4098
139.5692, 428.0469
140.0513, 424.9552
140.5334, 421.1872
141.0156, 416.5817
141.4977, 411.7204
141.9798, 407.7968
142.4619, 404.6754
142.9440, 402.3276
143.4261, 400.9150
143.9083, 400.3188
144.3904, 400.0929
144.8725, 400.2296
145.3546, 400.5384
145.8367, 400.7439
146.3188, 400.8646
146.8010, 400.8184
147.2831, 400.7146
147.7652, 400.6415
148.2473, 399.7855
148.7294, 397.0830
149.2115, 393.7407
149.6937, 390.5974
150.1758, 387.8848
150.6579, 385.5301
151.1400, 383.5494
151.6221, 382.5895
152.1042, 380.6361
152.5864, 376.7216
153.0685, 371.9528
153.5506, 367.4959
154.0327, 363.9297
154.5148, 361.0583
154.9969, 357.9690
155.4791, 354.7897
155.9612, 351.2005
156.4433, 346.7744
156.9254, 341.9608
157.4075, 337.4532
157.8896, 333.7182
158.3718, 330.7189
158.8539, 327.7309
159.3360, 324.6592
159.8181, 321.6840
160.3002, 318.7205
160.7823, 315.8876
161.2645, 313.5077
161.7466, 311.9478
162.2287, 311.2164
162.7108, 309.8341
163.1929, 307.3243
163.6750, 304.6200
164.1572, 302.2561
164.6393, 300.2739
165.1214, 298.4576
165.6035, 296.6497
166.0856, 294.8584
166.5677, 293.1589
167.0499, 291.5133
167.5320, 289.9827
168.0141, 288.6984
168.4962, 287.7094
168.9783, 286.7746
169.4604, 285.5620
169.9426, 284.2254
170.4247, 283.1606
170.9068, 282.8601
171.3889, 282.9472
171.8710, 282.2750
172.3531, 280.2492
172.8353, 278.3800
173.3174, 277.6817
173.7995, 277.8134
174.2816, 277.9839
174.7637, 277.6507
175.2458, 276.8452
175.7280, 276.1130
176.2101, 275.2864
176.6922, 274.7357
177.1743, 274.8497
177.6564, 275.4074
178.1385, 275.8198
178.6207, 275.4968
179.1028, 274.3205
179.5849, 273.3354
180.0670, 272.7101
180.5491, 272.1302
181.0313, 271.3778
181.5134, 270.5130
181.9955, 269.8139
182.4776, 269.6191
182.9597, 270.1546
183.4418, 270.3750
183.9240, 270.1506
184.4061, 269.7899
184.8882, 269.4244
185.3703, 269.0909
185.8524, 268.8174
186.3345, 268.6920
186.8167, 268.9539
187.2988, 268.5041
187.7809, 266.8338
188.2630, 264.8053
188.7451, 262.9936
189.2272, 261.5264
189.7094, 260.4756
190.1915, 260.0609
190.6736, 260.4752
191.1557, 260.5616
191.6378, 260.0415
192.1199, 259.1921
192.6021, 258.2881
193.0842, 257.3650
193.5663, 256.5212
194.0484, 256.0674
194.5305, 255.9807
195.0126, 255.5719
195.4948, 254.3875
195.9769, 252.7601
196.4590, 251.3748
196.9411, 250.4348
197.4232, 249.6297
197.9053, 248.6986
198.3875, 247.6508
198.8696, 246.4559
199.3517, 244.8168
199.8338, 242.9350
200.3159, 241.7733
200.7980, 241.9959
201.2802, 242.3318
201.7623, 241.8481
202.2444, 240.6309
202.7265, 239.2105
203.2086, 237.9309
203.6907, 236.7945
204.1729, 235.7014
204.6550, 234.6806
205.1371, 233.6841
205.6192, 232.6868
206.1013, 231.6896
206.5834, 230.7087
207.0656, 229.6978
207.5477, 228.6056
208.0298, 227.8352
208.5119, 227.7122
208.9940, 227.6623
209.4761, 227.5908
209.9583, 227.4152
210.4404, 226.9796
210.9225, 226.0343
211.4046, 224.3739
211.8867, 223.0816
212.3689, 222.4354
212.8510, 221.8804
213.3331, 221.1613
213.8152, 220.2674
214.2973, 219.3436
214.7794, 218.5640
215.2616, 217.9900
215.7437, 217.3326
216.2258, 216.4735
216.7079, 215.6477
217.1900, 215.0138
217.6721, 214.5684
218.1543, 214.1654
218.6364, 213.6378
219.1185, 212.9266
219.6006, 212.3310
220.0827, 211.9156
220.5648, 211.5542
221.0470, 211.1422
221.5291, 210.6796
222.0112, 210.2813
222.4933, 210.1219
222.9754, 210.3111
223.4575, 210.0704
223.9397, 208.6263
224.4218, 207.2699
224.9039, 207.3294
225.3860, 208.8950
225.8681, 210.5517
226.3502, 210.8182
226.8324, 209.5834
227.3145, 208.6261
227.7966, 208.2822
228.2787, 208.1217
228.7608, 207.6691
229.2429, 206.8579
229.7251, 206.1142
230.2072, 205.9336
230.6893, 206.2078
231.1714, 206.2692
231.6535, 205.7313
232.1356, 205.0672
232.6178, 204.9626
233.0999, 205.5571
233.5820, 206.0582
234.0641, 205.6530
234.5462, 204.6713
235.0283, 203.8423
235.5105, 203.3949
235.9926, 203.1819
236.4747, 203.0184
236.9568, 202.9156
237.4389, 202.8197
237.9210, 202.6993
238.4032, 202.5635
238.8853, 202.4321
239.3674, 202.3798
239.8495, 202.2926
240.3316, 201.9102
240.8137, 201.1018
241.2959, 200.3956
241.7780, 200.2138
242.2601, 200.2334
242.7422, 200.0433
243.2243, 199.4153
243.7064, 198.5973
244.1886, 198.0961
244.6707, 198.0837
245.1528, 197.9492
245.6349, 197.3442
246.1170, 196.5649
246.5991, 195.9411
247.0813, 195.6358
247.5634, 195.4256
248.0455, 194.8044
248.5276, 193.4991
249.0097, 192.4314
249.4918, 192.1222
249.9740, 191.9869
250.4561, 191.4468
250.9382, 190.2751
251.4203, 188.8150
251.9024, 187.7478
252.3845, 187.2984
252.8667, 186.7552
253.3488, 185.8291
253.8309, 184.8743
254.3130, 184.2649
254.7951, 184.1010
255.2772, 184.0438
255.7594, 183.4594
256.2415, 182.0013
256.7236, 180.7202
257.2057, 179.8448
257.6878, 179.0441
258.1699, 178.0561
258.6520, 176.8273
259.1342, 175.5015
259.6163, 174.3051
260.0984, 173.2211
260.5805, 172.3189
261.0626, 171.7364
261.5447, 171.1992
262.0269, 170.6484
262.5090, 170.0139
262.9911, 169.0910
263.4732, 167.5446
263.9553, 164.9574
264.4374, 162.8891
264.9196, 161.4714
265.4017, 160.3514
265.8838, 159.3829
266.3659, 158.5131
266.8480, 157.7346
267.3301, 157.0737
267.8123, 156.6585
268.2944, 155.7814
268.7765, 154.0061
269.2586, 152.2483
269.7407, 150.9970
270.2228, 150.2355
270.7050, 149.6533
271.1871, 148.9901
271.6692, 148.2501
272.1513, 147.3664
272.6334, 145.9835
273.1155, 144.8141
273.5977, 144.2802
274.0798, 144.2638
274.5619, 144.3489
275.0440, 144.2309
275.5261, 143.9131
276.0082, 143.6273
276.4904, 143.5119
276.9725, 143.2825
277.4546, 142.6933
277.9367, 141.8984
278.4188, 141.2766
278.9009, 141.0837
279.3831, 141.2418
279.8652, 141.2499
280.3473, 141.0632
280.8294, 140.8144
281.3115, 140.4780
281.7936, 140.1104
282.2758, 139.8196
282.7579, 139.6641
283.2400, 139.6029
283.7221, 139.5164
284.2042, 139.5180
284.6863, 139.3420
285.1685, 138.8369
285.6506, 138.1437
286.1327, 137.4166
286.6148, 136.6904
287.0969, 136.0792
287.5790, 135.8572
288.0612, 136.1693
288.5433, 136.4600
289.0254, 136.7528
289.5075, 136.9399
289.9896, 136.8104
290.4717, 136.2957
290.9539, 135.6995
291.4360, 135.4835
291.9181, 135.7779
292.4002, 135.8168
292.8823, 135.2582
293.3644, 134.5560
293.8466, 134.1687
294.3287, 134.1671
294.8108, 134.3494
295.2929, 134.5721
295.7750, 134.8384
296.2571, 134.9160
296.7393, 134.6521
297.2214, 134.2971
297.7035, 134.0110
298.1856, 133.8115
298.6677, 133.7345
299.1498, 133.8756
299.6320, 134.1876
300.1141, 134.2231
300.5962, 133.6432
301.0783, 133.0936
301.5604, 133.0076
302.0425, 133.3169
302.5247, 133.7138
303.0068, 134.1109
303.4889, 134.4051
303.9710, 134.2734
304.4531, 133.3695
304.9352, 132.5537
305.4174, 132.2686
305.8995, 132.3731
306.3816, 132.4961
306.8637, 132.4858
307.3458, 132.4195
307.8279, 132.4816
308.3101, 132.7291
308.7922, 132.9086
309.2743, 132.8825
309.7564, 132.7460
310.2385, 132.6783
310.7206, 132.7397
311.2028, 132.8288
311.6849, 132.7794
312.1670, 132.5749
312.6491, 132.4305
313.1312, 132.4474
313.6133, 132.5179
314.0955, 132.5835
314.5776, 132.6431
315.0597, 132.4704
315.5418, 131.6255
316.0239, 130.1487
316.5060, 129.4134
316.9882, 130.0709
317.4703, 131.1287
317.9524, 131.8887
318.4345, 132.3015
318.9166, 132.3793
319.3987, 131.9925
319.8809, 131.2633
320.3630, 130.9087
320.8451, 131.2181
321.3272, 131.6148
321.8093, 131.7833
322.2914, 131.7742
322.7736, 131.7770
323.2557, 131.8887
323.7378, 132.0639
324.2199, 132.1673
324.7020, 132.1129
325.1841, 132.1617
325.6663, 132.5578
326.1484, 133.1020
326.6305, 133.3994
327.1126, 133.3095
327.5947, 132.9905
328.0768, 132.6379
328.5590, 132.2093
329.0411, 131.9445
329.5232, 131.8767
330.0053, 131.9993
330.4874, 132.4080
330.9695, 133.1207
331.4517, 133.7921
331.9338, 134.0539
332.4159, 133.8578
332.8980, 133.6290
333.3801, 133.2045
333.8622, 132.8803
334.3444, 132.9941
334.8265, 133.4910
335.3086, 133.8903
335.7907, 133.7956
336.2729, 133.3042
336.7550, 133.2029
337.2371, 133.8053
337.7192, 134.4201
338.2013, 134.8719
338.6834, 135.1147
339.1656, 134.9657
339.6477, 134.2561
340.1298, 133.2911
340.6119, 132.9655
341.0940, 133.6670
341.5761, 134.2076
342.0583, 134.3006
342.5404, 134.1391
343.0225, 133.9477
343.5046, 133.7903
343.9867, 133.6380
344.4688, 133.4277
344.9510, 133.0687
345.4331, 132.9669
345.9152, 133.5023
346.3973, 134.0331
346.8794, 134.0009
347.3615, 133.4024
347.8437, 132.6551
348.3258, 132.1051
348.8079, 131.7679
349.2900, 131.4171
349.7721, 131.0603
350.2542, 130.6888
350.7364, 130.2703
351.2185, 129.8321
351.7006, 129.4358
352.1827, 129.1205
352.6648, 128.8645
353.1469, 128.5793
353.6291, 128.4229
354.1112, 128.0394
354.5933, 127.1556
355.0754, 126.1164
355.5575, 125.3526
356.0396, 124.9994
356.5218, 124.8283
357.0039, 124.4683
357.4860, 123.8777
357.9681, 123.1561
358.4502, 122.0764
358.9323, 121.0491
359.4145, 120.3282
359.8966, 119.9422
360.3787, 119.8094
360.8608, 119.9025
361.3429, 120.2667
361.8250, 120.2961
362.3072, 119.6665
362.7893, 119.0651
363.2714, 118.7085
363.7535, 118.5418
364.2356, 118.4348
364.7177, 118.3128
365.1999, 118.1881
365.6820, 118.1127
366.1641, 118.1420
366.6462, 118.1462
367.1283, 118.1055
367.6104, 118.0385
368.0926, 117.9071
368.5747, 117.7177
369.0568, 117.6108
369.5389, 117.8537
370.0210, 118.6563
370.5031, 119.2165
370.9853, 119.3562
371.4674, 119.4016
371.9495, 119.4268
372.4316, 119.4896
372.9137, 119.6977
373.3958, 120.1880
373.8780, 120.9408
374.3601, 121.5513
374.8422, 121.9478
375.3243, 122.2830
375.8064, 122.4947
376.2885, 122.7059
376.7707, 123.1149
377.2528, 123.8447
377.7349, 124.7292
378.2170, 125.3835
378.6991, 125.6789
379.1812, 126.1251
379.6634, 126.8587
380.1455, 127.7813
380.6276, 128.8803
381.1097, 130.1402
381.5918, 131.4412
382.0739, 132.7011
382.5561, 133.9116
383.0382, 135.0047
383.5203, 135.9282
384.0024, 136.7736
384.4845, 137.4743
384.9666, 138.1316
385.4488, 139.0446
385.9309, 140.5728
386.4130, 142.3978
386.8951, 143.7700
387.3772, 144.5728
387.8593, 145.3632
388.3415, 146.5651
388.8236, 147.8799
389.3057, 148.9026
389.7878, 149.4843
390.2699, 149.9431
390.7520, 150.5761
391.2342, 151.3539
391.7163, 151.9713
392.1984, 152.1722
392.6805, 152.4209
393.1626, 153.4107
393.6447, 155.1426
394.1269, 156.7134
394.6090, 157.5835
395.0911, 158.1509
395.5732, 159.0783
396.0553, 160.4602
396.5374, 161.9082
397.0196, 163.0642
397.5017, 163.9854
397.9838, 165.0820
398.4659, 166.3679
398.9480, 167.8292
399.4301, 169.5329
399.9123, 171.4191
400.3944, 173.3083
400.8765, 175.1255
401.3586, 176.8800
401.8407, 178.5762
402.3228, 180.0645
402.8050, 181.8135
403.2871, 184.0096
403.7692, 186.4533
404.2513, 188.9593
404.7334, 191.4949
405.2155, 194.0798
405.6977, 196.7354
406.1798, 199.4843
406.6619, 202.1732
407.1440, 204.8222
407.6261, 207.4057
408.1082, 209.9159
408.5904, 212.3496
409.0725, 214.6351
409.5546, 216.7082
410.0367, 218.6919
410.5188, 220.9724
411.0009, 223.9684
411.4831, 226.7061
411.9652, 228.9872
412.4473, 231.0899
412.9294, 233.2228
413.4115, 235.4408
413.8936, 237.6929
414.3758, 239.9107
414.8579, 242.0716
415.3400, 244.3056
415.8221, 246.8589
416.3042, 249.2442
416.7863, 251.4011
417.2685, 253.2424
417.7506, 254.6855
418.2327, 255.7102
418.7148, 256.2139
419.1969, 255.7655
419.6790, 253.9288
420.1612, 252.1341
420.6433, 251.2913
421.1254, 250.2940
421.6075, 248.1427
422.0896, 244.6621
422.5717, 240.5975
423.0539, 236.6949
423.5360, 232.9210
424.0181, 228.6851
424.5002, 223.6416
424.9823, 218.5536
425.4644, 213.8544
425.9466, 209.5073
426.4287, 205.4490
426.9108, 201.8445
427.3929, 198.3779
427.8750, 194.4583
428.3571, 190.0236
428.8393, 185.9970
429.3214, 182.7985
429.8035, 180.2524
430.2856, 177.9486
430.7677, 175.8512
431.2498, 174.0503
431.7320, 172.6578
432.2141, 171.5679
432.6962, 170.5559
433.1783, 169.5649
433.6604, 168.7250
434.1425, 168.1665
434.6247, 167.9101
435.1068, 167.8574
435.5889, 168.0261
436.0710, 168.3804
436.5531, 168.9120
437.0352, 169.6120
437.5174, 170.4710
437.9995, 171.4931
438.4816, 172.6432
438.9637, 173.8349
439.4458, 174.8514
439.9279, 176.2425
440.4101, 178.3360
440.8922, 180.6195
441.3743, 182.5867
441.8564, 184.2195
442.3385, 185.9585
442.8206, 188.2804
443.3028, 191.2134
443.7849, 194.0611
444.2670, 196.6945
444.7491, 199.3871
445.2312, 202.3586
445.7133, 205.3968
446.1955, 208.2044
446.6776, 210.6470
447.1597, 212.8449
447.6418, 214.9508
448.1239, 216.8301
448.6060, 219.0241
449.0882, 222.2561
449.5703, 225.2862
450.0524, 227.3853
450.5345, 228.6087
451.0166, 229.4528
451.4987, 230.3643
451.9809, 231.1634
452.4630, 231.1081
452.9451, 229.9538
453.4272, 228.5945
453.9093, 227.5590
454.3914, 226.5117
454.8736, 225.0099
455.3557, 222.8784
455.8378, 220.6288
456.3199, 218.7354
456.8020, 217.0797
457.2841, 215.2044
457.7663, 212.9731
458.2484, 210.5766
458.7305, 208.1220
459.2126, 205.6229
459.6947, 203.3203
460.1768, 201.3405
460.6590, 199.4956
461.1411, 197.7210
461.6232, 195.9726
462.1053, 194.0291
462.5874, 191.7247
463.0695, 189.2278
463.5517, 186.9951
464.0338, 185.2132
464.5159, 183.3469
464.9980, 181.2558
465.4801, 179.0984
465.9622, 177.0318
466.4444, 175.0650
466.9265, 173.0324
467.4086, 170.7730
467.8907, 168.2813
468.3728, 165.9658
468.8549, 164.1173
469.3371, 162.1217
469.8192, 159.7108
470.3013, 157.1374
470.7834, 154.7444
471.2655, 152.6511
471.7477, 150.7318
472.2298, 148.7685
472.7119, 146.7023
473.1940, 144.8904
473.6761, 143.7012
474.1582, 142.4594
474.6404, 140.7641
475.1225, 138.7681
475.6046, 136.8866
476.0867, 135.3709
476.5688, 134.0629
477.0509, 132.6862
477.5331, 131.2321
478.0152, 129.7371
478.4973, 128.2012
478.9794, 126.6188
479.4615, 124.9136
479.9436, 123.0638
480.4258, 121.3886
480.9079, 120.1321
481.3900, 119.1137
481.8721, 118.0523
482.3542, 116.9168
482.8363, 115.7259
483.3185, 114.4464
483.8006, 113.1213
484.2827, 111.9959
484.7648, 111.2079
485.2469, 110.4463
485.7290, 109.6188
486.2112, 108.7464
486.6933, 107.8731
487.1754, 107.0081
487.6575, 106.1003
488.1396, 105.0610
488.6217, 103.8294
489.1039, 102.7630
489.5860, 101.9098
490.0681, 101.1382
490.5502, 100.4452
491.0323, 99.78683
491.5144, 99.09921
491.9966, 98.35381
492.4787, 97.57159
492.9608, 96.79385
493.4429, 96.00028
493.9250, 95.27376
494.4071, 94.74174
494.8893, 94.17488
495.3714, 93.38902
495.8535, 92.44149
496.3356, 91.57017
496.8177, 90.97871
497.2998, 90.53055
497.7820, 89.85393
498.2641, 88.89639
498.7462, 88.01579
499.2283, 87.40937
499.7104, 86.92752
500.1925, 86.36193
500.6747, 85.68753
501.1568, 85.05559
501.6389, 84.57568
502.1210, 84.17475
502.6031, 83.74983
503.0852, 83.28864
503.5674, 82.80153
504.0495, 82.30455
504.5316, 81.78902
505.0137, 81.21323
505.4958, 80.51448
505.9779, 79.83875
506.4601, 79.03487
506.9422, 78.35457
507.4243, 78.28000
507.9064, 78.87524
508.3885, 79.54954
508.8706, 79.58949
509.3528, 78.91085
509.8349, 78.24973
510.3170, 77.40688
510.7991, 76.80674
511.2812, 76.82093
511.7633, 77.07471
512.2454, 77.01185
512.7275, 76.40649
513.2097, 75.59000
513.6918, 75.05003
514.1739, 74.80889
514.6560, 74.64176
515.1381, 74.52116
515.6202, 74.48354
516.1024, 74.58656
516.5845, 74.78284
517.0666, 74.95979
517.5487, 75.17085
518.0308, 75.23896
518.5129, 74.80569
518.9951, 73.93743
519.4772, 73.31268
519.9593, 73.20983
520.4414, 73.36123
520.9235, 73.39138
521.4056, 73.29667
521.8878, 73.19657
522.3699, 73.07495
522.8520, 72.98275
523.3341, 73.01580
523.8162, 73.12684
524.2983, 73.13179
524.7805, 72.91546
525.2626, 72.57484
525.7447, 72.37995
526.2268, 72.47989
526.7089, 72.50085
527.1910, 72.32732
527.6732, 72.17341
528.1553, 72.17313
528.6374, 72.32659
529.1195, 72.58060
529.6016, 72.92503
530.0837, 73.30994
530.5659, 73.52502
531.0480, 73.47823
531.5301, 73.50244
532.0122, 73.78149
532.4943, 74.10799
532.9764, 74.26976
533.4586, 74.26722
533.9407, 74.39988
534.4228, 75.00243
534.9049, 75.82389
535.3870, 76.29725
535.8691, 76.36970
536.3513, 76.53561
536.8334, 77.09471
537.3155, 77.92159
537.7976, 78.68022
538.2797, 79.34183
538.7618, 80.01684
539.2440, 80.73507
539.7261, 81.48030
540.2082, 82.18410
540.6903, 82.86860
541.1724, 83.72375
541.6545, 84.95456
542.1367, 86.47354
542.6188, 87.57442
543.1009, 87.57471
543.5830, 88.04385
544.0651, 89.72810
544.5472, 91.55195
545.0294, 92.38286
545.5115, 92.19410
545.9936, 92.03677
546.4757, 92.96666
546.9578, 94.80108
547.4399, 96.30893
547.9221, 97.39233
548.4042, 98.36717
548.8863, 99.35809
549.3684, 100.3208
549.8505, 101.1730
550.3326, 101.8794
550.8148, 102.6650
551.2969, 103.8123
551.7790, 105.0902
552.2611, 106.0322
552.7432, 106.5831
553.2253, 107.0457
553.7075, 107.6656
554.1896, 108.3630
554.6717, 108.7022
555.1538, 108.4407
555.6359, 108.2189
556.1180, 108.3473
556.6002, 108.4581
557.0823, 108.0836
557.5644, 107.2311
558.0465, 106.3329
558.5286, 105.7591
559.0107, 105.4912
559.4929, 105.3832
559.9750, 105.6217
560.4571, 105.7202
560.9392, 105.3142
561.4213, 104.9207
561.9034, 104.9953
562.3856, 105.5967
562.8677, 106.4447
563.3498, 107.3487
563.8319, 108.3257
564.3140, 109.4849
564.7961, 110.8854
565.2783, 112.1676
565.7604, 113.1548
566.2425, 113.8963
566.7246, 114.5503
567.2067, 115.1544
567.6888, 115.5580
568.1710, 115.5342
568.6531, 115.3870
569.1352, 115.5499
569.6173, 115.9849
570.0994, 116.1737
570.5815, 115.6880
571.0637, 114.8001
571.5458, 114.6397
572.0279, 115.7737
572.5100, 116.8320
572.9921, 117.7656
573.4742, 118.5926
573.9564, 119.1996
574.4385, 119.6876
574.9206, 120.3592
575.4027, 121.4099
575.8848, 122.8109
576.3669, 124.4814
576.8491, 126.4333
577.3312, 128.6061
577.8133, 131.0090
578.2954, 133.6403
578.7775, 136.4360
579.2596, 139.4054
579.7418, 142.6380
580.2239, 146.3388
580.7060, 150.2029
581.1881, 153.7436
581.6702, 157.1059
582.1523, 160.9676
582.6345, 165.6598
583.1166, 170.8259
583.5988, 175.7543
584.0809, 180.4103
584.5630, 184.8795
585.0451, 189.3174
585.5272, 193.4552
586.0093, 197.1717
586.4915, 200.4690
586.9736, 203.4014
587.4557, 205.9938
587.9378, 208.1624
588.4199, 209.7644
588.9020, 210.8172
589.3842, 211.1785
589.8663, 210.7151
590.3484, 209.6753
590.8305, 208.2070
591.3126, 206.3301
591.7947, 204.0940
592.2769, 201.5395
592.7590, 198.5680
593.2411, 195.0375
593.7232, 191.0325
594.2053, 186.7204
594.6874, 182.1128
595.1696, 177.3500
595.6517, 172.5779
596.1338, 167.7990
596.6159, 162.4754
597.0980, 156.0277
597.5801, 149.8455
598.0623, 144.2260
598.5444, 139.0020
599.0265, 133.9228
599.5086, 128.9745
599.9907, 124.4157
600.4728, 120.6072
600.9550, 117.4194
601.4371, 113.8213
601.9192, 109.4798
602.4013, 105.5312
602.8834, 102.6068
603.3655, 100.1154
603.8477, 97.47212
604.3298, 94.63797
604.8119, 92.17056
605.2940, 90.50214
605.7761, 89.27367
606.2582, 88.03396
606.7404, 86.78754
607.2225, 85.74461
607.7046, 85.03098
608.1867, 84.51386
608.6688, 83.91316
609.1509, 83.12247
609.6331, 82.51205
610.1152, 82.09332
610.5973, 81.83476
611.0794, 81.87193
611.5615, 82.02995
612.0436, 81.94254
612.5258, 81.43227
613.0079, 80.80302
613.4900, 80.52261
613.9721, 80.59932
614.4542, 80.85051
614.9363, 81.37199
615.4185, 81.88280
615.9006, 82.16128
616.3827, 82.30691
616.8648, 82.50338
617.3469, 82.78407
617.8290, 83.11822
618.3112, 83.52401
618.7933, 83.95876
619.2754, 84.38489
619.7575, 84.78512
620.2396, 85.06019
620.7217, 85.11153
621.2039, 84.97768
621.6860, 84.91223
622.1681, 84.93353
622.6502, 85.00450
623.1323, 85.14056
623.6144, 85.31001
624.0966, 85.52196
624.5787, 85.75137
625.0608, 85.92213
625.5429, 85.97316
626.0250, 85.95148
626.5071, 85.95401
626.9893, 85.98227
627.4714, 85.97581
627.9535, 85.82402
628.4356, 85.76773
628.9177, 86.19849
629.3998, 87.03600
629.8820, 87.68877
630.3641, 87.96784
630.8462, 88.14478
631.3283, 88.24586
631.8104, 88.38407
632.2925, 88.76778
632.7747, 89.44542
633.2568, 90.26427
633.7389, 91.05411
634.2210, 91.81446
634.7031, 92.65691
635.1852, 93.51313
635.6674, 94.56936
636.1495, 96.05640
636.6316, 97.62627
637.1137, 98.92830
637.5958, 99.93140
638.0779, 100.8530
638.5601, 101.8311
639.0422, 102.8201
639.5243, 103.8364
640.0064, 104.8508
640.4885, 105.4748
640.9706, 105.4647
641.4528, 105.1669
641.9349, 105.1985
642.4170, 105.8250
642.8991, 105.7377
643.3812, 104.3985
643.8633, 102.9198
644.3455, 101.7713
644.8276, 100.8404
645.3097, 99.94927
645.7918, 99.02034
646.2739, 97.91534
646.7560, 96.37264
647.2382, 94.40321
647.7203, 92.66792
648.2024, 91.19132
648.6845, 89.88169
649.1666, 88.79033
649.6487, 87.79211
650.1309, 86.71517
650.6130, 85.54018
651.0951, 84.36193
651.5772, 83.20284
652.0593, 82.06532
652.5414, 80.96152
653.0236, 79.89310
653.5057, 78.84982
653.9878, 77.82247
654.4699, 76.85912
654.9520, 76.04944
655.4341, 75.43169
655.9163, 74.85600
656.3984, 74.27729
656.8805, 73.79280
657.3626, 73.57681
657.8447, 73.42416
658.3268, 73.00662
658.8090, 72.21704
659.2911, 71.37280
659.7732, 70.70852
660.2553, 70.19382
660.7374, 69.80006
661.2195, 69.52605
661.7017, 69.19376
662.1838, 68.66647
662.6659, 68.06521
663.1480, 67.70938
663.6301, 67.79967
664.1122, 67.70710
664.5944, 67.20835
665.0765, 66.72438
665.5586, 66.54575
666.0407, 66.55965
666.5228, 66.50886
667.0049, 66.28398
667.4871, 65.99545
667.9692, 65.78404
668.4513, 65.64727
668.9334, 65.53477
669.4155, 65.46583
669.8976, 65.35045
670.3798, 65.05753
670.8619, 64.71562
671.3440, 64.60869
671.8261, 64.83741
672.3082, 65.00331
672.7903, 64.94879
673.2725, 64.81615
673.7546, 64.77633
674.2367, 64.77577
674.7188, 64.59780
675.2009, 64.12862
675.6830, 63.54224
676.1652, 63.11529
676.6473, 62.81437
677.1294, 62.89472
677.6115, 63.72317
678.0936, 64.42606
678.5757, 64.41920
679.0579, 64.12357
679.5400, 64.22541
680.0221, 64.95138
680.5042, 65.46227
680.9863, 65.05669
681.4684, 64.29007
681.9506, 63.86393
682.4327, 63.80709
682.9148, 63.96204
683.3969, 64.27787
683.8790, 64.59622
684.3611, 64.56241
684.8433, 63.96923
685.3254, 63.65831
685.8075, 63.97026
686.2896, 64.19837
686.7717, 63.99129
687.2538, 63.60138
687.7360, 63.40810
688.2181, 63.51759
688.7002, 63.65752
689.1823, 63.57788
689.6644, 63.38954
690.1465, 63.32591
690.6287, 63.39402
691.1108, 63.48157
691.5929, 63.53838
692.0750, 63.57479
692.5571, 63.60685
693.0392, 63.62873
693.5214, 63.66848
694.0035, 63.70447
694.4856, 63.78169
694.9677, 64.02360
695.4498, 64.27260
695.9319, 64.28431
696.4141, 64.00303
696.8962, 63.65846
697.3783, 63.46952
697.8604, 63.38342
698.3425, 63.19236
698.8246, 62.87926
699.3068, 62.76348
699.7889, 63.03183
700.2710, 63.47410
700.7531, 63.79015
701.2352, 63.96976
701.7173, 64.04513
702.1995, 63.80168
702.6816, 63.69380
703.1637, 64.12887
703.6458, 64.70992
704.1279, 64.85754
704.6100, 64.47466
705.0922, 63.97958
705.5743, 63.73712
706.0564, 63.69502
706.5385, 63.71540
707.0206, 63.81723
707.5027, 63.77393
707.9849, 63.39495
708.4670, 63.01449
708.9491, 63.09798
709.4312, 63.63672
709.9133, 64.08338
710.3954, 64.32051
710.8776, 64.55532
711.3597, 64.95147
711.8418, 65.34642
712.3239, 65.51157
712.8060, 65.43652
713.2881, 65.30270
713.7703, 65.25838
714.2524, 65.26476
714.7345, 65.20506
715.2166, 65.07384
715.6987, 64.90984
716.1808, 64.66197
716.6630, 64.47630
717.1451, 64.54225
717.6272, 64.79845
718.1093, 64.97090
718.5914, 65.07706
719.0735, 65.04665
719.5557, 64.65176
720.0378, 64.24162
720.5199, 64.24709
721.0020, 64.62801
721.4841, 65.00674
721.9662, 65.13676
722.4484, 65.13142
722.9305, 65.28371
723.4126, 65.63159
723.8947, 65.66037
724.3768, 65.13155
724.8589, 64.62503
725.3411, 64.57481
725.8232, 64.81496
726.3053, 64.95344
726.7874, 64.94435
727.2695, 64.90284
727.7516, 64.72414
728.2338, 64.63754
728.7159, 64.99719
729.1980, 65.61388
729.6801, 65.93159
730.1622, 65.69117
730.6443, 65.28686
731.1265, 65.38003
731.6086, 65.97316
732.0907, 66.21426
732.5728, 65.95981
733.0549, 65.70400
733.5370, 65.64107
734.0192, 65.72673
734.5013, 65.93900
734.9834, 66.31955
735.4655, 66.49047
735.9476, 66.17556
736.4297, 65.82822
736.9119, 65.70798
737.3940, 65.75912
737.8761, 65.92775
738.3582, 66.16927
738.8403, 66.31315
739.3224, 66.15156
739.8046, 65.75855
740.2867, 65.46171
740.7688, 65.24973
741.2509, 65.21317
741.7330, 65.44025
742.2151, 65.77088
742.6973, 66.09868
743.1794, 66.40787
743.6615, 66.54185
744.1436, 66.31026
744.6257, 66.12057
745.1078, 66.19964
745.5900, 66.33309
746.0721, 66.23129
746.5542, 65.93576
747.0363, 65.75697
747.5184, 65.90758
748.0005, 66.23281
748.4827, 66.47038
748.9648, 66.61982
749.4469, 66.63836
749.9290, 66.47832
750.4111, 66.30744
750.8932, 66.17836
751.3754, 66.13898
751.8575, 66.37428
752.3396, 67.08640
752.8217, 67.57366
753.3038, 67.70572
753.7859, 67.63081
754.2681, 67.31702
754.7502, 66.89982
755.2323, 66.61418
755.7144, 66.53875
756.1965, 66.50510
756.6786, 66.23891
757.1608, 65.86885
757.6429, 65.94044
758.1250, 66.48409
758.6071, 66.88089
759.0892, 66.83656
759.5714, 66.65047
760.0535, 66.75163
760.5356, 67.19688
761.0177, 67.43681
761.4998, 67.39863
761.9819, 67.26857
762.4641, 66.91126
762.9462, 66.60943
763.4283, 66.72213
763.9104, 67.18851
764.3925, 67.55944
764.8746, 67.54433
765.3568, 67.34960
765.8389, 67.18999
766.3210, 67.08064
766.8031, 67.09710
767.2852, 67.25395
767.7673, 67.48136
768.2495, 67.74393
768.7316, 68.01801
769.2137, 68.21819
769.6958, 68.31684
770.1779, 68.39065
770.6600, 68.54477
771.1422, 68.56562
771.6243, 68.21072
772.1064, 67.71097
772.5885, 67.45017
773.0706, 67.53336
773.5527, 67.69237
774.0349, 67.77712
774.5170, 67.82895
774.9991, 67.91606
775.4812, 68.02130
775.9633, 68.05502
776.4454, 67.98444
776.9276, 67.91031
777.4097, 67.96863
777.8918, 68.15384
778.3739, 68.26492
778.8560, 68.29052
779.3381, 68.26452
779.8203, 68.05315
780.3024, 67.92036
780.7845, 68.17284
781.2666, 68.71534
781.7487, 69.07723
782.2308, 69.06333
782.7130, 68.97260
783.1951, 68.93375
783.6772, 68.90550
784.1593, 68.70583
784.6414, 68.44601
785.1235, 68.61986
785.6057, 69.54565
786.0878, 70.69424
786.5699, 71.12753
787.0520, 70.85794
787.5341, 70.48100
788.0162, 69.88516
788.4984, 69.80998
788.9805, 71.05481
789.4626, 72.66830
789.9447, 72.77380
790.4268, 70.96888
790.9089, 69.84050
791.3911, 69.92944
791.8732, 70.24178
792.3553, 70.52573
792.8374, 70.72581
793.3195, 70.80649
793.8016, 70.76411
794.2838, 70.61203
794.7659, 70.27483
795.2480, 69.94007
795.7301, 69.92393
796.2122, 70.17063
796.6943, 70.47636
797.1765, 70.80611
797.6586, 71.01955
798.1407, 70.97536
798.6228, 70.77861
799.1049, 70.82149
799.5870, 71.33001
800.0692, 71.59737
800.5513, 71.35723
801.0334, 71.14414
801.5155, 71.20167
801.9976, 71.39821
802.4797, 71.52968
802.9619, 71.55530
803.4440, 71.60003
803.9261, 71.78327
804.4082, 71.96322
804.8903, 72.01884
805.3724, 71.96268
805.8546, 71.79939
806.3367, 71.54620
806.8188, 71.31001
807.3009, 71.18696
807.7830, 71.16893
808.2651, 71.23257
808.7473, 71.38515
809.2294, 71.58620
809.7115, 71.88989
810.1936, 72.11706
810.6757, 72.07082
811.1578, 71.83772
811.6400, 71.76057
812.1221, 71.89524
812.6042, 72.06699
813.0863, 72.33067
813.5684, 72.54809
814.0505, 72.62807
814.5327, 72.60149
815.0148, 72.51034
815.4969, 72.37189
815.9790, 72.24136
816.4611, 72.11876
816.9432, 72.05833
817.4254, 72.20506
817.9075, 72.52142
818.3896, 72.79825
818.8717, 72.97363
819.3538, 73.14065
819.8359, 73.41688
820.3181, 73.75557
820.8002, 73.81637
821.2823, 73.48392
821.7644, 73.13425
822.2465, 72.70599
822.7286, 72.38400
823.2108, 72.33116
823.6929, 72.43758
824.1750, 72.47385
824.6571, 72.37619
825.1392, 72.32542
825.6213, 72.37930
826.1035, 72.51818
826.5856, 72.78912
827.0677, 73.11485
827.5498, 73.40005
828.0319, 73.59705
828.5140, 73.59753
828.9962, 73.19030
829.4783, 72.58397
829.9604, 72.42510
830.4425, 72.70070
830.9246, 72.92810
831.4067, 72.98171
831.8889, 73.05869
832.3710, 73.38604
832.8531, 73.84450
833.3352, 73.87987
833.8173, 72.98302
834.2994, 72.53464
834.7816, 72.98257
835.2637, 73.36394
835.7458, 73.00993
836.2279, 72.42304
836.7100, 72.46032
837.1921, 73.30087
837.6743, 73.99732
838.1564, 74.03223
838.6385, 73.75034
839.1206, 73.24344
839.6027, 72.72464
840.0848, 72.67429
840.5670, 73.13265
841.0491, 73.61112
841.5312, 73.70786
842.0133, 73.56721
842.4954, 73.56194
842.9775, 73.69473
843.4597, 73.79473
843.9418, 73.84191
844.4239, 73.84453
844.9060, 73.79490
845.3881, 73.71461
845.8702, 73.65652
846.3524, 73.64874
846.8345, 73.57280
847.3166, 73.23903
847.7987, 73.06924
848.2808, 73.40886
848.7629, 73.84303
849.2451, 73.88341
849.7272, 73.53975
850.2093, 73.24844
850.6914, 73.25207
851.1735, 73.32296
851.6556, 73.22727
852.1378, 73.09431
852.6199, 73.22502
853.1020, 73.56464
853.5841, 73.66235
854.0662, 73.25317
854.5483, 72.71535
855.0305, 72.75979
855.5126, 73.34880
855.9947, 73.54648
856.4768, 73.26315
856.9589, 72.97979
857.4410, 72.86991
857.9232, 72.84062
858.4053, 72.80066
858.8874, 72.75036
859.3695, 72.61996
859.8516, 72.28151
860.3337, 72.04514
860.8159, 72.02525
861.2980, 72.04463
861.7801, 71.92677
862.2622, 71.76417
862.7443, 71.84029
863.2264, 72.31217
863.7086, 72.58115
864.1907, 71.93972
864.6728, 71.18430
865.1549, 71.29924
865.6370, 71.99303
866.1191, 72.52035
866.6013, 72.64747
867.0834, 72.46635
867.5655, 71.97928
868.0476, 71.35488
868.5297, 71.13213
869.0118, 71.30817
869.4940, 71.43187
869.9761, 71.42992
870.4582, 71.35359
870.9403, 71.20808
871.4224, 71.04219
871.9045, 70.98544
872.3867, 71.08313
872.8688, 71.15536
873.3509, 71.31001
873.8330, 71.30454
874.3151, 70.95537
874.7972, 70.49330
875.2794, 70.12109
875.7615, 69.85722
876.2436, 69.68147
876.7257, 69.65949
877.2078, 69.62975
877.6899, 69.40508
878.1721, 69.19782
878.6542, 69.35035
879.1363, 69.74454
879.6184, 69.96398
880.1005, 69.82275
880.5826, 69.49793
881.0648, 69.08097
881.5469, 68.66624
882.0290, 68.62625
882.5111, 68.91432
882.9932, 68.95321
883.4753, 68.54237
883.9575, 68.11257
884.4396, 68.10972
884.9217, 68.42845
885.4038, 68.49147
885.8859, 68.17560
886.3680, 67.98061
886.8502, 68.01437
887.3323, 68.08147
887.8144, 68.12666
888.2965, 68.11489
888.7786, 67.96181
889.2607, 67.63226
889.7429, 67.37875
890.2250, 67.21848
890.7071, 67.16258
891.1892, 67.30161
891.6713, 67.48793
892.1534, 67.60198
892.6356, 67.61753
893.1177, 67.50327
893.5998, 67.18880
894.0819, 66.91039
894.5640, 66.95670
895.0461, 67.13198
895.5283, 67.11044
896.0104, 66.91772
896.4925, 66.74713
896.9746, 66.67261
897.4567, 66.64190
897.9388, 66.59868
898.4210, 66.54743
898.9031, 66.51578
899.3852, 66.50537
899.8673, 66.47279
900.3494, 66.41395
900.8315, 66.29793
901.3137, 66.05773
901.7958, 65.78844
902.2779, 65.78246
902.7600, 66.21718
903.2421, 66.41090
903.7242, 66.10849
904.2064, 65.89896
904.6885, 66.10298
905.1706, 66.37802
905.6527, 66.34504
906.1348, 66.02962
906.6169, 65.79617
907.0991, 65.72599
907.5812, 65.75230
908.0633, 65.83652
908.5454, 66.01796
909.0275, 66.50156
909.5096, 67.07085
909.9918, 67.19798
910.4739, 66.71323
910.9560, 66.25643
911.4381, 66.45550
911.9202, 66.94619
912.4023, 67.19992
912.8845, 67.28655
913.3666, 67.45080
913.8487, 67.72913
914.3308, 67.91880
914.8129, 67.85902
915.2950, 67.70254
915.7772, 67.80669
916.2593, 68.16717
916.7414, 68.43904
917.2235, 68.58266
917.7056, 68.80402
918.1877, 69.24528
918.6699, 69.64882
919.1520, 69.61767
919.6341, 69.17319
920.1162, 69.20530
920.5983, 70.20350
921.0804, 70.81162
921.5626, 70.42253
922.0447, 70.08739
922.5268, 70.49694
923.0089, 71.27905
923.4910, 71.71382
923.9731, 71.64990
924.4553, 71.78655
924.9374, 72.43262
925.4195, 73.15684
925.9016, 73.78989
926.3837, 74.35921
926.8658, 74.89179
927.3480, 75.40671
927.8301, 75.93076
928.3122, 76.45908
928.7943, 77.06288
929.2764, 77.77914
929.7585, 78.62417
930.2407, 79.63187
930.7228, 80.78536
931.2049, 82.13244
931.6870, 83.64113
932.1691, 84.91133
932.6512, 85.44492
933.1334, 85.66119
933.6155, 86.67380
934.0976, 88.38392
934.5797, 89.85641
935.0618, 90.93877
935.5439, 92.41415
936.0261, 94.78669
936.5082, 97.43681
936.9903, 99.22099
937.4724, 100.0499
937.9545, 102.0369
938.4366, 105.6105
938.9188, 109.1320
939.4009, 112.1713
939.8830, 115.1507
940.3651, 118.3018
940.8472, 121.6771
941.3293, 125.4709
941.8115, 129.6956
942.2936, 134.3311
942.7757, 139.3377
943.2578, 144.8030
943.7399, 150.7792
944.2220, 157.2196
944.7042, 163.9146
945.1863, 170.9525
945.6684, 178.8496
946.1505, 187.8705
946.6326, 197.5937
947.1147, 207.7516
947.5969, 218.5839
948.0790, 230.1726
948.5611, 242.7036
949.0432, 256.6105
949.5253, 271.8985
950.0074, 288.0009
950.4896, 304.3360
950.9717, 321.2896
951.4538, 339.4768
951.9359, 358.5859
952.4180, 377.9499
952.9001, 397.5679
953.3823, 417.8676
953.8644, 439.1535
954.3465, 461.3299
954.8286, 484.2543
955.3107, 508.0398
955.7928, 532.7841
956.2750, 558.6320
956.7571, 586.0767
957.2392, 615.3535
957.7213, 645.6201
958.2034, 676.5084
958.6855, 707.7244
959.1677, 738.4835
959.6498, 768.5605
960.1319, 799.1224
960.6140, 830.5694
961.0961, 861.6725
961.5782, 892.1205
962.0604, 921.7628
962.5425, 950.6552
963.0246, 978.5213
963.5067, 1003.650
963.9888, 1028.246
964.4709, 1046.256
964.9531, 1056.526
965.4352, 1061.680
965.9173, 1064.328
966.3994, 1061.546
966.8815, 1049.541
967.3636, 1028.213
967.8458, 1000.523
968.3279, 964.9700
968.8100, 925.7634
969.2921, 882.4371
969.7742, 837.4410
970.2563, 791.7627
970.7385, 745.8524
971.2206, 699.7601
971.7027, 653.6375
972.1848, 610.2018
972.6669, 571.0711
973.1490, 535.4110
973.6312, 503.3800
974.1133, 474.1641
974.5954, 446.8623
975.0775, 421.3295
975.5596, 397.3825
976.0417, 374.9771
976.5239, 354.6496
977.0060, 337.2865
977.4881, 321.9866
977.9702, 307.2231
978.4523, 293.1834
978.9344, 280.6125
979.4166, 269.6055
979.8987, 259.4565
980.3808, 249.6693
980.8629, 240.5263
981.3450, 232.5136
981.8271, 225.5827
982.3093, 219.4464
982.7914, 214.0917
983.2735, 209.1441
983.7556, 204.4877
984.2377, 200.5519
984.7198, 197.7830
985.2020, 195.8751
985.6841, 193.8942
986.1662, 191.8194
986.6483, 189.8661
987.1304, 188.0138
987.6125, 186.3811
988.0947, 184.9763
988.5768, 183.8584
989.0589, 183.1334
989.5410, 182.7579
990.0231, 182.3899
990.5052, 181.8672
990.9874, 181.7467
991.4695, 182.2497
991.9516, 182.8586
992.4337, 183.2703
992.9158, 183.7271
993.3979, 184.5680
993.8801, 185.7932
994.3622, 187.1086
994.8443, 188.3610
995.3264, 189.9346
995.8085, 192.1422
996.2906, 194.3941
996.7728, 196.0297
997.2549, 197.6707
997.7370, 200.3487
998.2191, 204.1771
998.7012, 208.0754
999.1833, 211.7145
999.6655, 215.4890
1000.148, 219.2774
1000.630, 223.4933
1001.112, 228.5591
1001.594, 234.2917
1002.076, 240.4121
1002.558, 246.8621
1003.040, 253.3699
1003.522, 259.5335
1004.005, 266.0110
1004.487, 273.5762
1004.969, 281.4919
1005.451, 288.7281
1005.933, 295.5578
1006.415, 303.1250
1006.897, 311.8400
1007.379, 320.3633
1007.861, 327.3202
1008.344, 333.8849
1008.826, 341.3975
1009.308, 349.4097
1009.790, 356.8637
1010.272, 363.8480
1010.754, 371.2461
1011.236, 379.5102
1011.718, 387.9082
1012.201, 395.5194
1012.683, 402.7463
1013.165, 410.3606
1013.647, 418.2589
1014.129, 425.9531
1014.611, 433.5162
1015.093, 441.9178
1015.575, 451.7894
1016.057, 461.8918
1016.540, 470.0275
1017.022, 476.9740
1017.504, 485.7678
1017.986, 496.1029
1018.468, 505.7067
1018.950, 514.0565
1019.432, 522.2990
1019.914, 531.1223
1020.396, 540.2530
1020.879, 549.2483
1021.361, 558.0812
1021.843, 566.2421
1022.325, 573.7001
1022.807, 580.7885
1023.289, 587.6180
1023.771, 593.6547
1024.253, 598.5811
1024.735, 602.3217
1025.218, 604.8815
1025.700, 606.3305
1026.182, 605.3660
1026.664, 601.8565
1027.146, 596.6224
1027.628, 589.8552
1028.110, 581.6127
1028.592, 571.8740
1029.075, 560.7068
1029.557, 548.1781
1030.039, 534.4445
1030.521, 518.5533
1031.003, 499.8262
1031.485, 480.7968
1031.967, 461.9777
1032.449, 443.5438
1032.932, 425.5676
1033.414, 408.0138
1033.896, 390.9451
1034.378, 374.5499
1034.860, 357.8795
1035.342, 340.1293
1035.824, 323.7004
1036.306, 309.6440
1036.788, 296.7341
1037.271, 284.0163
1037.753, 271.6611
1038.235, 259.9748
1038.717, 249.0807
1039.199, 238.5616
1039.681, 227.8638
1040.163, 218.3046
1040.645, 210.6047
1041.127, 203.7395
1041.610, 196.8846
1042.092, 190.1500
1042.574, 183.8395
1043.056, 177.8439
1043.538, 172.4407
1044.020, 167.8916
1044.502, 163.6046
1044.984, 159.4020
1045.467, 155.4059
1045.949, 151.7967
1046.431, 148.4898
1046.913, 145.2463
1047.395, 142.0791
1047.877, 138.8618
1048.359, 135.1794
1048.841, 131.9525
1049.323, 129.6214
1049.806, 127.7758
1050.288, 126.3263
1050.770, 125.0395
1051.252, 123.3300
1051.734, 120.9725
1052.216, 118.7894
1052.698, 116.8563
1053.180, 115.2374
1053.662, 114.2527
1054.145, 113.3266
1054.627, 111.7354
1055.109, 109.8317
1055.591, 108.7152
1056.073, 108.7987
1056.555, 108.3354
1057.037, 106.1774
1057.519, 104.2074
1058.002, 103.4088
1058.484, 102.9842
1058.966, 102.3343
1059.448, 101.4392
1059.930, 100.3141
1060.412, 98.91737
1060.894, 97.83735
1061.376, 97.48390
1061.859, 97.23362
1062.341, 96.86285
1062.823, 96.41665
1063.305, 95.82076
1063.787, 95.22368
1064.269, 95.00230
1064.751, 95.25276
1065.233, 95.24366
1065.715, 94.45795
1066.198, 93.64521
1066.680, 93.19254
1067.162, 92.84303
1067.644, 92.34934
1068.126, 91.79451
1068.608, 91.36291
1069.090, 91.09290
1069.572, 90.93031
1070.054, 91.07674
1070.537, 91.03544
1071.019, 90.41045
1071.501, 89.64712
1071.983, 89.02372
1072.465, 88.59066
1072.947, 88.47658
1073.429, 88.65215
1073.911, 88.59190
1074.394, 87.85828
1074.876, 87.16673
1075.358, 86.84911
1075.840, 86.71773
1076.322, 86.70554
1076.804, 86.73303
1077.286, 86.71792
1077.768, 86.64065
1078.250, 86.48323
1078.733, 86.16029
1079.215, 85.90789
1079.697, 85.80031
1080.179, 85.84621
1080.661, 86.19090
1081.143, 86.61211
1081.625, 86.81042
1082.107, 86.77007
1082.590, 86.64551
1083.072, 86.44042
1083.554, 86.29240
1084.036, 86.25586
1084.518, 86.30645
1085.000, 86.38734
1085.482, 86.57305
1085.964, 87.09831
1086.447, 87.82072
1086.929, 88.18484
1087.411, 87.94265
1087.893, 87.68967
1088.375, 87.70341
1088.857, 87.74242
1089.339, 87.63944
1089.821, 87.51218
1090.303, 87.45299
1090.786, 87.48746
1091.268, 87.64773
1091.750, 87.94900
1092.232, 88.31403
1092.714, 88.68742
1093.196, 89.15138
1093.678, 89.82433
1094.160, 90.53275
1094.642, 91.15401
1095.125, 91.68076
1095.607, 92.04054
1096.089, 92.20837
1096.571, 92.73277
1097.053, 94.08852
1097.535, 95.40836
1098.017, 96.30952
1098.499, 97.14783
1098.982, 98.15871
1099.464, 99.30360
1099.946, 100.4374
1100.428, 101.5702
1100.910, 102.9735
1101.392, 104.8306
1101.874, 106.8006
1102.356, 108.9085
1102.839, 110.9858
1103.321, 112.8034
1103.803, 114.6272
1104.285, 116.8129
1104.767, 119.3327
1105.249, 121.8825
1105.731, 124.3667
1106.213, 126.9699
1106.695, 129.6400
1107.177, 132.5372
1107.660, 135.7879
1108.142, 139.2152
1108.624, 142.7486
1109.106, 146.2991
1109.588, 149.7036
1110.070, 153.0137
1110.552, 155.9593
1111.034, 158.2566
1111.517, 160.5700
1111.999, 163.1363
1112.481, 165.7141
1112.963, 168.4190
1113.445, 170.9133
1113.927, 172.4451
1114.409, 172.9064
1114.891, 173.1979
1115.374, 173.7168
1115.856, 173.3790
1116.338, 171.7318
1116.820, 169.6542
1117.302, 167.6646
1117.784, 165.4455
1118.266, 162.4595
1118.748, 158.7432
1119.230, 155.1252
1119.713, 151.6506
1120.195, 148.1748
1120.677, 144.8002
1121.159, 141.1821
1121.641, 136.9365
1122.123, 132.7780
1122.605, 129.5676
1123.087, 126.9616
1123.569, 123.5267
1124.052, 118.9320
1124.534, 114.8660
1125.016, 111.3861
1125.498, 108.2550
1125.980, 105.4634
1126.462, 102.8406
1126.944, 100.2742
1127.426, 97.79224
1127.909, 95.43413
1128.391, 93.19923
1128.873, 91.02401
1129.355, 88.89377
1129.837, 86.96774
1130.319, 85.27771
1130.801, 83.66441
1131.283, 82.01818
1131.766, 80.47738
1132.248, 79.26704
1132.730, 78.26221
1133.212, 76.88087
1133.694, 75.17126
1134.176, 73.80437
1134.658, 72.83083
1135.140, 72.03844
1135.622, 71.34879
1136.104, 70.51094
1136.587, 69.25725
1137.069, 67.89494
1137.551, 67.12878
1138.033, 66.75188
1138.515, 65.99518
1138.997, 64.95175
1139.479, 64.18568
1139.961, 63.78884
1140.444, 63.40942
1140.926, 62.84293
1141.408, 62.23790
1141.890, 61.82333
1142.372, 61.45853
1142.854, 60.84814
1143.336, 60.11528
1143.818, 59.56843
1144.301, 59.17047
1144.783, 58.58617
1145.265, 57.72681
1145.747, 57.05840
1146.229, 57.09834
1146.711, 57.22364
1147.193, 56.77605
1147.675, 56.10212
1148.157, 55.51429
1148.640, 55.08588
1149.122, 54.99434
1149.604, 55.16489
1150.086, 55.08645
1150.568, 54.42372
1151.050, 53.84710
1151.532, 53.78150
1152.014, 53.88861
1152.496, 54.10488
1152.979, 54.22900
1153.461, 53.91867
1153.943, 53.35979
1154.425, 53.13428
1154.907, 53.41593
1155.389, 53.48434
1155.871, 52.90559
1156.353, 52.39588
1156.836, 52.34563
1157.318, 52.26426
1157.800, 51.67065
1158.282, 50.92807
1158.764, 50.59257
1159.246, 50.67072
1159.728, 50.77148
1160.210, 51.01021
1160.693, 51.03624
1161.175, 50.65699
1161.657, 50.35186
1162.139, 50.36634
1162.621, 50.38478
1163.103, 50.05804
1163.585, 49.58099
1164.067, 49.53074
1164.549, 50.01909
1165.031, 50.09177
1165.514, 49.56817
1165.996, 49.30939
1166.478, 49.56147
1166.960, 49.75032
1167.442, 49.57257
1167.924, 49.14353
1168.406, 48.54036
1168.888, 47.88822
1169.371, 47.94769
1169.853, 48.69964
1170.335, 48.97858
1170.817, 48.71342
1171.299, 48.46308
1171.781, 48.40284
1172.263, 48.41746
1172.745, 48.43202
1173.228, 48.39663
1173.710, 48.18284
1174.192, 47.86705
1174.674, 47.68432
1175.156, 47.59313
1175.638, 47.43501
1176.120, 47.20815
1176.602, 47.05316
1177.084, 47.02077
1177.567, 46.93103
1178.049, 46.55187
1178.531, 46.16181
1179.013, 46.05548
1179.495, 46.14351
1179.977, 46.47026
1180.459, 46.82671
1180.941, 46.78197
1181.423, 46.34656
1181.906, 45.97484
1182.388, 45.86889
1182.870, 45.77612
1183.352, 45.45642
1183.834, 45.23777
1184.316, 45.45443
1184.798, 45.74499
1185.280, 45.72082
1185.763, 45.50821
1186.245, 45.47286
1186.727, 45.67404
1187.209, 45.64268
1187.691, 44.92772
1188.173, 44.55562
1188.655, 45.08915
1189.137, 45.46256
1189.620, 45.04944
1190.102, 44.46929
1190.584, 44.33831
1191.066, 44.53292
1191.548, 44.60773
1192.030, 44.52708
1192.512, 44.52395
1192.994, 44.66670
1193.476, 44.59120
1193.958, 44.13787
1194.441, 43.84808
1194.923, 44.07200
1195.405, 44.43192
1195.887, 44.40908
1196.369, 44.10418
1196.851, 43.88752
1197.333, 43.75906
1197.815, 43.78386
1198.298, 43.92738
1198.780, 43.78077
1199.262, 43.26451
1199.744, 42.88552
1200.226, 42.99895
1200.708, 43.20658
1201.190, 42.90870
1201.672, 42.42180
1202.155, 42.23212
1202.637, 42.28833
1203.119, 42.65327
1203.601, 43.13190
1204.083, 43.17063
1204.565, 42.65924
1205.047, 42.15740
1205.529, 41.94051
1206.011, 41.90038
1206.494, 42.09814
1206.976, 42.30815
1207.458, 42.33058
1207.940, 42.28746
1208.422, 42.36446
1208.904, 42.51287
1209.386, 42.52743
1209.868, 42.35168
1210.350, 42.19455
1210.833, 42.07161
1211.315, 41.99212
1211.797, 41.97746
1212.279, 41.98342
1212.761, 42.02811
1213.243, 42.04188
1213.725, 41.93393
1214.207, 41.72942
1214.690, 41.53188
1215.172, 41.32708
1215.654, 41.23527
1216.136, 41.29764
1216.618, 41.17270
1217.100, 40.74685
1217.582, 40.50322
1218.064, 40.74205
1218.547, 41.09355
1219.029, 41.04132
1219.511, 40.77673
1219.993, 40.92506
1220.475, 41.31505
1220.957, 41.30701
1221.439, 40.95355
1221.921, 40.56316
1222.403, 40.27045
1222.885, 40.34462
1223.368, 40.98288
1223.850, 41.56350
1224.332, 41.43443
1224.814, 41.07407
1225.296, 40.86218
1225.778, 40.74806
1226.260, 40.57257
1226.742, 40.47380
1227.225, 40.90767
1227.707, 41.82977
1228.189, 42.22418
1228.671, 41.51591
1229.153, 40.87736
1229.635, 40.53033
1230.117, 40.36902
1230.599, 40.41500
1231.082, 40.57870
1231.564, 40.87885
1232.046, 41.19420
1232.528, 41.27888
1233.010, 41.13634
1233.492, 41.08374
1233.974, 41.14516
1234.456, 41.20198
1234.938, 41.25891
1235.421, 41.21486
1235.903, 41.02483
1236.385, 40.83141
1236.867, 40.74866
1237.349, 40.72051
1237.831, 40.63643
1238.313, 40.53212
1238.795, 40.52678
1239.277, 40.60462
1239.760, 40.75018
1240.242, 40.92930
1240.724, 41.04329
1241.206, 41.06488
1241.688, 41.04356
1242.170, 41.00494
1242.652, 40.95005
1243.134, 40.89692
1243.617, 40.80856
1244.099, 40.49296
1244.581, 40.25729
1245.063, 40.65034
1245.545, 41.33325
1246.027, 41.41283
1246.509, 40.76131
1246.991, 40.46720
1247.474, 40.93586
1247.956, 41.39988
1248.438, 41.93794
1248.920, 42.23917
1249.402, 42.14021
1249.884, 41.86769
1250.366, 41.52544
1250.848, 41.22761
1251.330, 41.23980
1251.813, 41.52460
1252.295, 41.52896
1252.777, 41.25606
1253.259, 41.33786
1253.741, 41.80664
1254.223, 42.07800
1254.705, 41.98016
1255.187, 41.89319
1255.669, 42.09737
1256.152, 42.34191
1256.634, 42.28939
1257.116, 42.10456
1257.598, 41.93570
1258.080, 41.85970
1258.562, 42.06200
1259.044, 42.42681
1259.526, 42.68492
1260.009, 42.78748
1260.491, 42.87847
1260.973, 43.09446
1261.455, 43.08167
1261.937, 42.39356
1262.419, 41.89381
1262.901, 41.99771
1263.383, 42.34742
1263.865, 42.86945
1264.348, 43.32581
1264.830, 43.31469
1265.312, 42.89367
1265.794, 42.60059
1266.276, 42.42081
1266.758, 42.50523
1267.240, 42.89813
1267.722, 43.13915
1268.204, 43.11155
1268.687, 43.13179
1269.169, 43.39397
1269.651, 43.62622
1270.133, 43.45754
1270.615, 43.11144
1271.097, 42.99309
1271.579, 43.00364
1272.061, 42.91476
1272.544, 42.81516
1273.026, 42.99428
1273.508, 43.40194
1273.990, 43.66558
1274.472, 43.64740
1274.954, 43.55854
1275.436, 43.35397
1275.918, 43.29586
1276.401, 43.64797
1276.883, 43.98918
1277.365, 44.04699
1277.847, 43.97464
1278.329, 43.87771
1278.811, 43.82282
1279.293, 44.05647
1279.775, 44.64106
1280.257, 44.72315
1280.740, 44.16937
1281.222, 44.15627
1281.704, 44.88187
1282.186, 45.35105
1282.668, 45.18313
##END=



