##NAMES=Bismoclite
##RRUFFID=R100197
##IDEAL CHEMISTRY=BiOCl
##LOCALITY=El Guanaco Mine, Guanaco (Huanaco), Santa Catalina, Antofagasta Province, Antofagasta Region, Chile
##OWNER=RRUFF
##SOURCE=Bob Jenkins
##DESCRIPTION=Unconsolidated colorless fragments and tabular crystals.
##STATUS=The identification of this mineral has been confirmed by single-crystal X-ray diffraction.
##URL=rruff.info/R100197
159.4958, 137.3681
159.9779, 138.3049
160.4600, 141.6935
160.9422, 144.5672
161.4243, 145.9148
161.9064, 146.4219
162.3885, 146.4994
162.8706, 145.6187
163.3527, 145.0603
163.8349, 145.6266
164.3170, 147.0863
164.7991, 148.3336
165.2812, 148.2722
165.7633, 148.0125
166.2454, 148.5638
166.7276, 150.6424
167.2097, 153.2465
167.6918, 156.0056
168.1739, 158.8682
168.6560, 161.6131
169.1381, 164.2708
169.6203, 166.6272
170.1024, 167.3817
170.5845, 166.5622
171.0666, 165.7022
171.5487, 165.5708
172.0309, 166.1279
172.5130, 166.9787
172.9951, 167.9482
173.4772, 169.0133
173.9593, 170.1431
174.4414, 171.7898
174.9236, 173.2492
175.4057, 173.4633
175.8878, 172.4249
176.3699, 171.3696
176.8520, 171.5406
177.3341, 172.4610
177.8163, 173.0997
178.2984, 172.3146
178.7805, 171.2178
179.2626, 171.7262
179.7447, 173.9563
180.2268, 176.5410
180.7090, 177.7284
181.1911, 178.0372
181.6732, 179.0751
182.1553, 182.0113
182.6374, 186.1142
183.1195, 189.8730
183.6017, 193.3187
184.0838, 196.3198
184.5659, 198.7494
185.0480, 200.6445
185.5301, 202.2986
186.0123, 203.3279
186.4944, 204.1654
186.9765, 206.5052
187.4586, 210.7616
187.9407, 215.2547
188.4228, 217.0993
188.9050, 216.5724
189.3871, 216.7135
189.8692, 219.6476
190.3513, 224.7429
190.8334, 228.8218
191.3155, 231.5322
191.7977, 233.6783
192.2798, 236.4725
192.7619, 239.9129
193.2440, 243.5688
193.7261, 247.3038
194.2082, 251.1034
194.6904, 254.9083
195.1725, 258.6407
195.6546, 262.5301
196.1367, 266.9607
196.6188, 271.9927
197.1009, 277.0381
197.5831, 281.4989
198.0652, 285.4183
198.5473, 290.5702
199.0294, 297.6147
199.5115, 305.1396
199.9937, 310.5926
200.4758, 313.9777
200.9579, 315.0385
201.4400, 313.2513
201.9221, 308.4870
202.4042, 303.0349
202.8864, 297.6284
203.3685, 291.0168
203.8506, 279.3751
204.3327, 261.7195
204.8148, 243.5248
205.2969, 227.3752
205.7791, 213.2329
206.2612, 201.4181
206.7433, 192.2189
207.2254, 185.1305
207.7075, 178.9870
208.1896, 173.8353
208.6718, 169.4397
209.1539, 165.6638
209.6360, 162.5807
210.1181, 159.9611
210.6002, 157.9584
211.0823, 156.3234
211.5645, 154.2285
212.0466, 151.3343
212.5287, 148.7713
213.0108, 147.2360
213.4929, 146.9787
213.9750, 146.7163
214.4572, 146.3259
214.9393, 145.9095
215.4214, 145.9001
215.9035, 146.7052
216.3856, 147.0827
216.8678, 146.1271
217.3499, 143.1421
217.8320, 141.1153
218.3141, 140.5176
218.7962, 140.8723
219.2783, 140.6802
219.7605, 139.6917
220.2426, 138.6051
220.7247, 137.6981
221.2068, 136.7779
221.6889, 136.6339
222.1710, 137.5870
222.6532, 139.2722
223.1353, 140.6139
223.6174, 141.8661
224.0995, 142.3814
224.5816, 141.6486
225.0637, 138.8753
225.5459, 136.8681
226.0280, 135.8672
226.5101, 135.6473
226.9922, 135.6550
227.4743, 136.2628
227.9564, 136.5160
228.4386, 135.7809
228.9207, 133.2751
229.4028, 131.7749
229.8849, 131.8231
230.3670, 132.7738
230.8492, 132.6746
231.3313, 130.5996
231.8134, 128.8755
232.2955, 128.7431
232.7776, 131.3840
233.2597, 132.8306
233.7419, 132.5987
234.2240, 131.2913
234.7061, 130.5045
235.1882, 130.5708
235.6703, 130.6565
236.1524, 130.3467
236.6346, 129.2511
237.1167, 128.6626
237.5988, 128.6400
238.0809, 129.0924
238.5630, 129.9315
239.0451, 131.7211
239.5273, 133.0321
240.0094, 133.1086
240.4915, 131.1130
240.9736, 130.0004
241.4557, 129.5673
241.9378, 128.7979
242.4200, 130.2923
242.9021, 131.0542
243.3842, 131.1230
243.8663, 128.4226
244.3484, 129.2981
244.8306, 128.7405
245.3127, 128.1241
245.7948, 129.5029
246.2769, 127.2052
246.7590, 128.5523
247.2411, 128.4445
247.7233, 128.1683
248.2054, 128.5980
248.6875, 128.6862
249.1696, 128.0369
249.6517, 127.3107
250.1338, 127.7160
250.6160, 130.0396
251.0981, 132.0934
251.5802, 133.2125
252.0623, 133.3335
252.5444, 132.8161
253.0265, 131.2371
253.5087, 129.3717
253.9908, 128.3807
254.4729, 128.5882
254.9550, 128.9994
255.4371, 129.3803
255.9192, 129.7319
256.4014, 130.0634
256.8835, 130.5483
257.3656, 130.8401
257.8477, 130.2847
258.3298, 128.0118
258.8120, 126.8997
259.2941, 128.1202
259.7762, 131.9020
260.2583, 134.1391
260.7404, 134.4726
261.2225, 133.7298
261.7047, 132.6389
262.1868, 130.8991
262.6689, 129.6007
263.1510, 129.0744
263.6331, 129.2984
264.1152, 129.3467
264.5974, 129.1307
265.0795, 128.8745
265.5616, 128.8287
266.0437, 129.0906
266.5258, 129.2276
267.0079, 129.0803
267.4901, 128.7108
267.9722, 128.7596
268.4543, 129.4699
268.9364, 130.1214
269.4185, 129.9906
269.9006, 128.8089
270.3828, 128.0365
270.8649, 127.9628
271.3470, 128.4558
271.8291, 128.8962
272.3112, 129.2655
272.7933, 129.6362
273.2755, 130.1743
273.7576, 130.9807
274.2397, 131.1973
274.7218, 130.5093
275.2039, 129.2842
275.6860, 128.7023
276.1682, 128.8962
276.6503, 129.2146
277.1324, 129.1805
277.6145, 128.7475
278.0966, 128.6839
278.5787, 129.2158
279.0609, 129.9593
279.5430, 129.9865
280.0251, 129.1965
280.5072, 128.3344
280.9893, 127.6896
281.4715, 127.2685
281.9536, 127.4407
282.4357, 128.4547
282.9178, 129.6133
283.3999, 129.4861
283.8820, 127.9883
284.3642, 126.6880
284.8463, 126.4168
285.3284, 127.0854
285.8105, 127.7190
286.2926, 128.3325
286.7747, 128.8399
287.2569, 129.1197
287.7390, 129.1734
288.2211, 129.0757
288.7032, 128.7650
289.1853, 128.3125
289.6674, 128.0311
290.1496, 127.9274
290.6317, 127.9440
291.1138, 128.1398
291.5959, 128.4647
292.0780, 128.5384
292.5602, 128.0693
293.0423, 127.3307
293.5244, 127.0315
294.0065, 127.1852
294.4886, 127.5359
294.9707, 127.9670
295.4529, 128.4308
295.9350, 128.7426
296.4171, 128.8369
296.8992, 128.7747
297.3813, 128.6092
297.8634, 128.3518
298.3456, 128.1215
298.8277, 128.1132
299.3098, 128.1959
299.7919, 128.0382
300.2740, 127.4635
300.7561, 126.8182
301.2383, 126.6320
301.7204, 126.8147
302.2025, 126.9705
302.6846, 126.6978
303.1667, 126.2833
303.6488, 126.2246
304.1310, 126.7081
304.6131, 127.2066
305.0952, 126.9002
305.5773, 126.1394
306.0594, 125.8722
306.5415, 127.2464
307.0237, 129.0445
307.5058, 129.9430
307.9879, 129.7357
308.4700, 129.1517
308.9521, 128.4547
309.4343, 127.7899
309.9164, 127.3940
310.3985, 127.6393
310.8806, 128.0042
311.3627, 128.0047
311.8448, 127.6141
312.3270, 127.3721
312.8091, 127.6914
313.2912, 128.3121
313.7733, 128.9278
314.2554, 129.4733
314.7375, 129.9492
315.2197, 130.4187
315.7018, 130.8611
316.1839, 131.0668
316.6660, 130.7787
317.1481, 130.2985
317.6302, 129.8685
318.1124, 129.4550
318.5945, 129.2097
319.0766, 129.2581
319.5587, 129.5327
320.0408, 129.7978
320.5229, 129.8760
321.0051, 129.9967
321.4872, 130.3285
321.9693, 131.1393
322.4514, 131.6977
322.9335, 131.8142
323.4156, 131.5834
323.8978, 131.1873
324.3799, 130.4022
324.8620, 129.6790
325.3441, 129.1639
325.8262, 128.8803
326.3083, 128.7804
326.7905, 129.2075
327.2726, 129.7054
327.7547, 129.7088
328.2368, 128.2069
328.7189, 127.2466
329.2010, 127.4543
329.6832, 128.9785
330.1653, 129.9878
330.6474, 130.2149
331.1295, 130.1189
331.6116, 130.0673
332.0938, 130.1033
332.5759, 130.1214
333.0580, 130.1685
333.5401, 130.2109
334.0222, 129.9277
334.5043, 128.9155
334.9865, 128.1286
335.4686, 128.3057
335.9507, 130.1451
336.4328, 130.9722
336.9149, 130.2577
337.3970, 128.6338
337.8792, 127.8274
338.3613, 128.0206
338.8434, 128.4774
339.3255, 128.9006
339.8076, 129.2847
340.2898, 129.7586
340.7719, 130.4493
341.2540, 131.0247
341.7361, 130.7881
342.2182, 129.6198
342.7003, 128.8330
343.1825, 129.0076
343.6646, 129.9958
344.1467, 130.8834
344.6288, 131.7109
345.1109, 132.2714
345.5930, 132.3331
346.0752, 131.9158
346.5573, 131.1654
347.0394, 129.7989
347.5215, 128.3874
348.0036, 128.4856
348.4857, 130.0574
348.9679, 131.6128
349.4500, 131.9410
349.9321, 131.3814
350.4142, 130.8947
350.8963, 130.6061
351.3784, 130.4896
351.8606, 130.6531
352.3427, 131.0066
352.8248, 131.2180
353.3069, 130.6594
353.7890, 130.0170
354.2711, 130.4150
354.7533, 132.0435
355.2354, 133.7322
355.7175, 134.4648
356.1996, 134.5611
356.6817, 134.5785
357.1638, 134.9170
357.6460, 135.1437
358.1281, 134.7975
358.6102, 133.9265
359.0923, 133.1442
359.5744, 132.7088
360.0565, 132.5772
360.5387, 132.7309
361.0208, 133.4765
361.5029, 134.1179
361.9850, 134.2213
362.4671, 133.9507
362.9492, 133.8072
363.4314, 134.4492
363.9135, 134.9144
364.3956, 134.5054
364.8777, 132.4738
365.3598, 131.1432
365.8419, 131.5195
366.3241, 132.7737
366.8062, 133.6638
367.2883, 133.5916
367.7704, 133.5490
368.2526, 133.8206
368.7347, 134.4736
369.2168, 135.1015
369.6989, 135.8444
370.1810, 136.4713
370.6631, 136.7947
371.1453, 136.6782
371.6274, 136.4507
372.1095, 136.0620
372.5916, 135.5609
373.0737, 135.2715
373.5558, 135.1762
374.0380, 135.3131
374.5201, 135.7773
375.0022, 136.7429
375.4843, 137.4132
375.9664, 137.6474
376.4485, 137.6745
376.9307, 137.9450
377.4128, 138.4784
377.8949, 139.1639
378.3770, 140.0030
378.8591, 140.9806
379.3412, 141.9519
379.8234, 142.9811
380.3055, 143.7484
380.7876, 143.6522
381.2697, 142.7553
381.7518, 142.1982
382.2339, 142.3561
382.7161, 142.9842
383.1982, 143.6271
383.6803, 144.2743
384.1624, 144.7667
384.6445, 144.7350
385.1266, 144.4592
385.6088, 144.6905
386.0909, 145.6280
386.5730, 146.8142
387.0551, 147.8448
387.5372, 148.7001
388.0193, 149.3387
388.5015, 149.4663
388.9836, 149.5017
389.4657, 150.0331
389.9478, 151.1115
390.4299, 151.9852
390.9120, 151.7882
391.3942, 151.1989
391.8763, 151.0606
392.3584, 152.1893
392.8405, 153.3365
393.3226, 153.9608
393.8047, 154.0909
394.2869, 153.8560
394.7690, 152.4724
395.2511, 151.3083
395.7332, 151.3791
396.2154, 153.7671
396.6975, 155.4498
397.1796, 155.2385
397.6617, 154.0217
398.1438, 153.3295
398.6259, 154.3252
399.1081, 154.9257
399.5902, 154.3774
400.0723, 152.4587
400.5544, 150.9083
401.0365, 149.9476
401.5186, 149.1830
402.0008, 148.2539
402.4829, 146.7355
402.9650, 145.8846
403.4471, 146.1714
403.9292, 147.2263
404.4113, 147.4603
404.8935, 146.6582
405.3756, 145.5417
405.8577, 144.2776
406.3398, 142.7441
406.8219, 142.2360
407.3040, 143.1228
407.7862, 144.3607
408.2683, 144.3907
408.7504, 143.1859
409.2325, 141.7366
409.7146, 140.1401
410.1967, 138.6182
410.6789, 138.0437
411.1610, 138.4559
411.6431, 138.8286
412.1252, 137.9528
412.6073, 136.3098
413.0894, 135.3250
413.5716, 135.4239
414.0537, 135.9806
414.5358, 136.2394
415.0179, 136.3159
415.5000, 136.6003
415.9821, 137.9340
416.4643, 139.2351
416.9464, 139.1404
417.4285, 137.4629
417.9106, 135.7167
418.3927, 134.7702
418.8748, 134.3415
419.3570, 134.1128
419.8391, 134.3732
420.3212, 134.4241
420.8033, 133.6716
421.2854, 132.3497
421.7675, 131.5381
422.2497, 132.2111
422.7318, 133.0025
423.2139, 133.1130
423.6960, 131.9592
424.1781, 131.2163
424.6603, 131.0260
425.1424, 131.3663
425.6245, 132.2491
426.1066, 134.6015
426.5887, 136.2876
427.0709, 136.6462
427.5530, 135.6777
428.0351, 135.0213
428.5172, 134.7165
428.9993, 134.6584
429.4814, 134.8311
429.9636, 135.3363
430.4457, 135.6498
430.9278, 135.6489
431.4099, 135.5112
431.8920, 135.7585
432.3741, 136.4883
432.8563, 136.8480
433.3384, 136.1477
433.8205, 134.6219
434.3026, 133.9988
434.7847, 134.3560
435.2668, 134.9577
435.7490, 135.1406
436.2311, 134.9588
436.7132, 134.5143
437.1953, 133.5446
437.6774, 132.7347
438.1595, 133.3908
438.6417, 135.1546
439.1238, 136.5413
439.6059, 136.3264
440.0880, 135.4488
440.5701, 134.8664
441.0522, 134.6996
441.5344, 134.7122
442.0165, 134.9516
442.4986, 135.2207
442.9807, 135.2762
443.4628, 134.7888
443.9449, 134.3160
444.4271, 134.1341
444.9092, 134.1834
445.3913, 134.1098
445.8734, 133.4454
446.3555, 132.9286
446.8376, 132.9992
447.3198, 134.2446
447.8019, 134.9626
448.2840, 134.8246
448.7661, 134.2630
449.2482, 133.8638
449.7303, 133.6878
450.2125, 133.5845
450.6946, 133.5680
451.1767, 133.6228
451.6588, 133.5263
452.1409, 133.2709
452.6230, 132.8832
453.1052, 132.3522
453.5873, 131.6604
454.0694, 130.8872
454.5515, 129.8630
455.0337, 129.1212
455.5158, 130.0459
455.9979, 132.4946
456.4800, 134.2324
456.9621, 133.8769
457.4442, 132.2880
457.9264, 131.4428
458.4085, 131.3255
458.8906, 131.4714
459.3727, 131.5387
459.8548, 131.6168
460.3369, 131.8722
460.8191, 132.4129
461.3012, 132.9762
461.7833, 133.3973
462.2654, 133.6865
462.7475, 133.8633
463.2296, 134.2503
463.7118, 134.2718
464.1939, 133.2937
464.6760, 131.2552
465.1581, 129.7862
465.6402, 129.8066
466.1223, 130.3384
466.6045, 130.6974
467.0866, 130.4635
467.5687, 130.4557
468.0508, 130.9507
468.5329, 131.6762
469.0150, 132.0109
469.4972, 131.6510
469.9793, 131.3590
470.4614, 131.4241
470.9435, 131.8761
471.4256, 132.0612
471.9077, 131.8542
472.3899, 131.6350
472.8720, 131.8274
473.3541, 132.4906
473.8362, 132.8499
474.3183, 132.7011
474.8004, 132.3567
475.2826, 132.5441
475.7647, 133.2151
476.2468, 133.6909
476.7289, 133.4098
477.2110, 132.7282
477.6931, 132.4584
478.1753, 132.6037
478.6574, 132.8717
479.1395, 133.2879
479.6216, 133.5981
480.1037, 133.3149
480.5858, 131.8556
481.0680, 130.6375
481.5501, 130.9693
482.0322, 132.2427
482.5143, 133.1881
482.9965, 132.8918
483.4786, 132.5173
483.9607, 132.7295
484.4428, 133.6270
484.9249, 134.2102
485.4070, 134.1449
485.8892, 133.7859
486.3713, 133.3592
486.8534, 132.4484
487.3355, 132.1114
487.8176, 132.5628
488.2997, 133.5377
488.7819, 134.5768
489.2640, 135.9254
489.7461, 136.7608
490.2282, 136.6618
490.7103, 135.6961
491.1924, 135.1224
491.6746, 135.0247
492.1567, 134.9511
492.6388, 134.2920
493.1209, 133.1681
493.6030, 132.8082
494.0851, 133.5208
494.5673, 134.6163
495.0494, 135.0197
495.5315, 134.9298
496.0136, 135.0493
496.4957, 136.3529
496.9778, 137.6556
497.4600, 137.1867
497.9421, 135.1612
498.4242, 133.7073
498.9063, 135.2065
499.3884, 137.2005
499.8705, 137.2608
500.3527, 133.7588
500.8348, 131.2021
501.3169, 132.0274
501.7990, 134.5554
502.2811, 135.8292
502.7632, 136.4397
503.2454, 136.7573
503.7275, 136.7976
504.2096, 135.7303
504.6917, 136.0932
505.1738, 135.8830
505.6559, 135.6493
506.1381, 136.2135
506.6202, 135.3073
507.1023, 135.8589
507.5844, 135.8286
508.0665, 136.0646
508.5486, 135.7239
509.0308, 135.5613
509.5129, 135.9756
509.9950, 136.0705
510.4771, 135.6634
510.9592, 135.9164
511.4413, 134.9900
511.9235, 135.0985
512.4056, 135.6535
512.8877, 135.2754
513.3698, 135.5389
513.8519, 135.5580
514.3340, 134.4666
514.8162, 135.3065
515.2983, 135.3112
515.7804, 134.4583
516.2625, 135.2321
516.7446, 134.6420
517.2267, 133.9349
517.7089, 132.9695
518.1910, 132.6369
518.6731, 133.8588
519.1552, 135.0619
519.6373, 135.7633
520.1194, 135.9711
520.6016, 135.6646
521.0837, 134.4830
521.5658, 133.1926
522.0479, 132.3487
522.5300, 132.0619
523.0121, 131.8129
523.4943, 131.4914
523.9764, 131.2932
524.4585, 131.7501
524.9406, 132.8752
525.4227, 133.6762
525.9048, 133.5177
526.3870, 132.9261
526.8691, 133.5133
527.3513, 135.1862
527.8334, 136.5033
528.3155, 135.9762
528.7976, 134.6213
529.2797, 133.9463
529.7618, 134.2043
530.2440, 134.6958
530.7261, 135.3986
531.2082, 135.8919
531.6903, 135.6260
532.1724, 133.3047
532.6545, 131.3788
533.1367, 130.8696
533.6188, 131.4246
534.1009, 131.7496
534.5830, 131.3991
535.0651, 131.0367
535.5472, 130.8438
536.0294, 130.8118
536.5115, 131.0466
536.9936, 131.7382
537.4757, 132.4331
537.9578, 132.6459
538.4399, 132.2359
538.9221, 132.3729
539.4042, 133.4369
539.8863, 134.6450
540.3684, 134.2944
540.8505, 132.5388
541.3326, 131.2259
541.8148, 131.3067
542.2969, 132.1726
542.7790, 132.8282
543.2611, 133.2910
543.7432, 133.7235
544.2253, 134.6134
544.7075, 135.3291
545.1896, 135.0049
545.6717, 133.3035
546.1538, 131.8305
546.6359, 131.4473
547.1180, 131.6688
547.6002, 131.9869
548.0823, 132.3278
548.5644, 132.7054
549.0465, 133.2290
549.5286, 133.7975
550.0107, 134.0907
550.4929, 133.7976
550.9750, 133.6671
551.4571, 133.7084
551.9392, 132.9952
552.4213, 133.6455
552.9034, 134.0027
553.3856, 134.0827
553.8677, 133.0550
554.3498, 133.4576
554.8319, 133.2870
555.3140, 133.0929
555.7961, 133.6968
556.2783, 132.8302
556.7604, 133.9596
557.2425, 133.8412
557.7246, 132.5614
558.2067, 131.3538
558.6888, 131.7337
559.1710, 133.2765
559.6531, 134.5418
560.1352, 134.6958
560.6173, 134.4593
561.0994, 134.1909
561.5815, 133.9161
562.0637, 133.6773
562.5458, 133.3523
563.0279, 133.1544
563.5100, 133.2606
563.9921, 134.1331
564.4742, 134.4513
564.9564, 133.9129
565.4385, 133.0195
565.9206, 132.6212
566.4027, 132.7860
566.8848, 133.1321
567.3669, 133.6257
567.8491, 134.1827
568.3312, 134.4003
568.8133, 134.2969
569.2954, 134.4107
569.7775, 135.6266
570.2596, 137.1431
570.7418, 137.3098
571.2239, 136.0018
571.7060, 134.4036
572.1881, 132.6021
572.6702, 131.3600
573.1523, 131.7009
573.6345, 135.0482
574.1166, 137.8765
574.5987, 138.6657
575.0808, 138.1139
575.5629, 137.3820
576.0450, 136.3373
576.5272, 135.4928
577.0093, 134.9303
577.4914, 134.6461
577.9735, 134.6662
578.4556, 135.1670
578.9377, 135.6130
579.4199, 135.8464
579.9020, 135.8714
580.3841, 134.9990
580.8662, 133.0115
581.3483, 131.3081
581.8304, 131.8142
582.3126, 133.8577
582.7947, 135.0171
583.2768, 134.6720
583.7589, 133.8650
584.2411, 133.4844
584.7232, 133.4741
585.2053, 133.7237
585.6874, 134.5887
586.1696, 135.3237
586.6517, 135.4688
587.1338, 135.1172
587.6159, 134.7074
588.0980, 134.0492
588.5801, 133.6218
589.0623, 133.7852
589.5444, 134.7024
590.0265, 135.0539
590.5086, 134.5116
590.9907, 133.8249
591.4728, 133.5805
591.9550, 133.8432
592.4371, 134.2247
592.9192, 134.7972
593.4013, 135.2464
593.8834, 134.9829
594.3655, 134.1160
594.8477, 133.2914
595.3298, 132.6197
595.8119, 132.2304
596.2940, 132.3065
596.7761, 132.8198
597.2582, 133.6764
597.7404, 135.4579
598.2225, 136.2251
598.7046, 136.7941
599.1867, 137.0700
599.6688, 137.0688
600.1509, 135.9598
600.6331, 136.2812
601.1152, 136.0294
601.5973, 135.7541
602.0794, 136.2767
602.5615, 135.3289
603.0436, 135.8390
603.5258, 135.7670
604.0079, 135.9615
604.4900, 135.5792
604.9721, 135.3750
605.4542, 135.7478
605.9363, 135.8011
606.4185, 133.7250
606.9006, 132.6226
607.3827, 133.5749
607.8648, 135.1980
608.3469, 135.2697
608.8290, 134.0497
609.3112, 132.9915
609.7933, 133.0384
610.2754, 133.5133
610.7575, 133.9488
611.2396, 134.2817
611.7217, 134.5871
612.2039, 135.0408
612.6860, 135.3678
613.1681, 135.3241
613.6502, 134.3157
614.1323, 133.9876
614.6144, 134.6248
615.0966, 135.7101
615.5787, 136.5961
616.0608, 137.3010
616.5429, 137.5997
617.0250, 137.2812
617.5071, 136.7119
617.9893, 136.9296
618.4714, 137.8061
618.9535, 138.3254
619.4356, 137.7021
619.9177, 136.5713
620.3998, 135.6440
620.8820, 134.9329
621.3641, 134.4268
621.8462, 133.8965
622.3283, 133.7155
622.8104, 134.2835
623.2925, 135.8877
623.7747, 137.2597
624.2568, 138.4920
624.7389, 139.1819
625.2210, 138.9158
625.7031, 136.9813
626.1852, 135.6761
626.6674, 135.2932
627.1495, 135.4048
627.6316, 135.2743
628.1137, 134.8810
628.5958, 134.7918
629.0779, 135.3084
629.5601, 136.0661
630.0422, 136.4230
630.5243, 136.3977
631.0064, 136.0893
631.4885, 135.0267
631.9706, 134.0654
632.4528, 134.3025
632.9349, 135.6338
633.4170, 136.5986
633.8991, 136.1212
634.3812, 135.4110
634.8633, 135.2209
635.3455, 135.8349
635.8276, 136.3250
636.3097, 136.7409
636.7918, 136.9555
637.2739, 136.7700
637.7560, 135.9946
638.2382, 135.6464
638.7203, 135.9538
639.2024, 136.4264
639.6845, 136.1760
640.1666, 135.3113
640.6487, 134.7388
641.1309, 134.7397
641.6130, 135.1428
642.0951, 135.9050
642.5773, 136.8954
643.0594, 137.7152
643.5415, 138.2798
644.0236, 138.5282
644.5057, 138.2911
644.9879, 137.6267
645.4700, 137.0673
645.9521, 136.5244
646.4342, 136.3250
646.9163, 136.7678
647.3984, 138.0702
647.8806, 138.5012
648.3627, 137.6992
648.8448, 136.7213
649.3269, 136.5206
649.8090, 137.0984
650.2911, 137.2174
650.7733, 136.6843
651.2554, 136.1461
651.7375, 136.5107
652.2196, 137.4653
652.7017, 138.2861
653.1838, 138.8857
653.6660, 139.0630
654.1481, 138.3821
654.6302, 137.2148
655.1123, 136.2079
655.5944, 135.5334
656.0765, 135.1004
656.5587, 134.8449
657.0408, 134.8012
657.5229, 135.1536
658.0050, 136.1976
658.4871, 137.1183
658.9692, 137.6093
659.4514, 137.7056
659.9335, 137.7797
660.4156, 137.8233
660.8977, 137.9074
661.3798, 138.1261
661.8619, 138.4202
662.3441, 138.6962
662.8262, 138.9548
663.3083, 138.9907
663.7904, 138.4194
664.2725, 137.6462
664.7546, 137.1333
665.2368, 137.0617
665.7189, 137.0170
666.2010, 136.5238
666.6831, 136.1337
667.1652, 136.5493
667.6473, 138.8801
668.1295, 140.1487
668.6116, 139.7192
669.0937, 138.4490
669.5758, 138.0809
670.0579, 138.7185
670.5400, 139.2254
671.0222, 139.2430
671.5043, 138.9511
671.9864, 138.5901
672.4685, 138.2093
672.9506, 138.0603
673.4327, 138.4499
673.9149, 139.0104
674.3970, 139.5304
674.8791, 139.9699
675.3612, 140.1105
675.8433, 139.5498
676.3254, 138.9370
676.8076, 138.6662
677.2897, 138.8490
677.7718, 138.7600
678.2539, 138.1623
678.7360, 137.6310
679.2181, 137.5379
679.7003, 137.9026
680.1824, 138.6802
680.6645, 140.0148
681.1466, 141.1443
681.6287, 140.8323
682.1108, 139.6449
682.5930, 139.2478
683.0751, 140.1443
683.5572, 141.2610
684.0393, 142.1414
684.5214, 142.5337
685.0035, 142.0899
685.4857, 139.2540
685.9678, 137.2314
686.4499, 137.2613
686.9320, 138.6190
687.4141, 139.6955
687.8962, 140.5199
688.3784, 140.9695
688.8605, 140.9148
689.3426, 140.5099
689.8247, 140.2859
690.3068, 140.2493
690.7889, 140.2058
691.2711, 139.9686
691.7532, 139.7038
692.2353, 139.9752
692.7174, 140.6474
693.1995, 140.8829
693.6816, 139.4613
694.1638, 137.9328
694.6459, 137.5807
695.1280, 138.5472
695.6101, 139.5264
696.0922, 140.4590
696.5743, 141.0940
697.0565, 141.2908
697.5386, 140.9729
698.0207, 140.4467
698.5028, 139.4755
698.9849, 138.8015
699.4670, 138.0317
699.9492, 138.8739
700.4313, 139.4230
700.9135, 139.6950
701.3956, 138.8593
701.8777, 139.4538
702.3598, 139.4752
702.8419, 139.4730
703.3240, 140.2689
703.8062, 139.5943
704.2883, 140.3001
704.7704, 141.3238
705.2525, 141.9539
705.7346, 141.4069
706.2167, 141.1134
706.6989, 141.4008
707.1810, 141.9396
707.6631, 141.9165
708.1452, 141.2181
708.6273, 140.6316
709.1094, 140.3281
709.5916, 140.3528
710.0737, 141.1972
710.5558, 142.6187
711.0379, 143.3962
711.5200, 141.9570
712.0021, 140.2696
712.4843, 140.2893
712.9664, 141.7244
713.4485, 142.9237
713.9306, 143.4880
714.4127, 143.4668
714.8948, 142.4283
715.3770, 140.3444
715.8591, 139.7420
716.3412, 141.4431
716.8233, 143.0013
717.3054, 142.6011
717.7875, 140.3735
718.2697, 140.0554
718.7518, 141.7665
719.2339, 143.7426
719.7160, 144.5966
720.1981, 144.6742
720.6802, 144.4468
721.1624, 143.9523
721.6445, 143.4061
722.1266, 142.8646
722.6087, 142.3725
723.0908, 141.9455
723.5729, 141.4134
724.0551, 141.3718
724.5372, 142.3756
725.0193, 143.3862
725.5014, 143.1392
725.9835, 141.3041
726.4656, 140.2888
726.9478, 140.4569
727.4299, 141.1711
727.9120, 141.6530
728.3941, 141.9349
728.8762, 141.8834
729.3583, 140.8253
729.8405, 140.3358
730.3226, 140.9972
730.8047, 141.3656
731.2868, 141.4567
731.7689, 140.4402
732.2510, 140.8540
732.7332, 140.6945
733.2153, 140.5116
733.6974, 141.1267
734.1795, 140.2713
734.6616, 140.8738
735.1437, 140.8943
735.6259, 141.1811
736.1080, 140.7742
736.5901, 143.0765
737.0722, 144.9708
737.5543, 144.7517
738.0364, 143.7926
738.5186, 143.7978
739.0007, 144.4687
739.4828, 144.7407
739.9649, 143.6323
740.4470, 142.5238
740.9291, 142.1123
741.4113, 142.3687
741.8934, 142.3600
742.3755, 141.8395
742.8576, 141.5074
743.3397, 141.7128
743.8218, 142.3797
744.3040, 142.9798
744.7861, 143.5166
745.2682, 143.6956
745.7503, 142.8732
746.2324, 141.7448
746.7145, 141.5572
747.1967, 142.2928
747.6788, 143.0605
748.1609, 143.6376
748.6430, 143.8705
749.1251, 143.4322
749.6072, 142.0006
750.0894, 141.5971
750.5715, 142.9601
751.0536, 144.4578
751.5357, 145.0439
752.0178, 144.6516
752.4999, 144.1907
752.9821, 143.6505
753.4642, 143.1095
753.9463, 142.4184
754.4284, 141.8360
754.9105, 141.9906
755.3926, 143.0211
755.8748, 144.1672
756.3569, 145.3158
756.8390, 146.1397
757.3211, 146.2974
757.8032, 145.3320
758.2853, 144.5762
758.7675, 144.1229
759.2496, 143.8850
759.7318, 143.7530
760.2139, 143.6971
760.6960, 144.0952
761.1781, 145.1043
761.6602, 146.1142
762.1423, 146.2491
762.6245, 145.8178
763.1066, 145.6440
763.5887, 146.0629
764.0708, 146.2352
764.5529, 145.0234
765.0350, 143.4611
765.5172, 142.7740
765.9993, 144.1282
766.4814, 145.1732
766.9635, 145.7272
767.4456, 145.9442
767.9277, 146.0250
768.4099, 145.9822
768.8920, 145.6328
769.3741, 144.8205
769.8562, 144.0027
770.3383, 143.9595
770.8204, 144.4519
771.3026, 144.8262
771.7847, 144.8123
772.2668, 144.7577
772.7489, 144.9314
773.2310, 145.2136
773.7131, 145.4131
774.1953, 145.2671
774.6774, 145.3660
775.1595, 146.0901
775.6416, 146.9036
776.1237, 146.6378
776.6058, 145.0977
777.0880, 143.9507
777.5701, 143.5722
778.0522, 143.8248
778.5343, 144.9144
779.0164, 146.4834
779.4985, 147.4888
779.9807, 147.2033
780.4628, 146.5833
780.9449, 145.9842
781.4270, 145.4956
781.9091, 145.2910
782.3912, 145.5938
782.8734, 145.9654
783.3555, 146.3785
783.8376, 146.8123
784.3197, 147.2691
784.8018, 147.7788
785.2839, 147.9690
785.7661, 147.5928
786.2482, 147.0308
786.7303, 147.0189
787.2124, 147.3617
787.6945, 147.5022
788.1766, 146.6898
788.6588, 146.1053
789.1409, 146.7154
789.6230, 148.0253
790.1051, 148.6138
790.5872, 147.9549
791.0693, 147.1475
791.5515, 146.2237
792.0336, 145.3898
792.5157, 145.4698
792.9978, 146.4699
793.4799, 147.1527
793.9620, 146.8655
794.4442, 146.2506
794.9263, 146.2291
795.4084, 146.6619
795.8905, 147.1575
796.3726, 147.8470
796.8547, 148.2392
797.3369, 147.7387
797.8190, 146.7412
798.3011, 146.6403
798.7832, 148.0321
799.2653, 149.1653
799.7474, 149.6083
800.2296, 149.5210
800.7117, 149.2299
801.1938, 148.7623
801.6759, 148.4331
802.1580, 148.5488
802.6401, 148.6823
803.1223, 148.0941
803.6044, 147.1216
804.0865, 146.6498
804.5686, 147.4991
805.0507, 148.3537
805.5328, 148.7578
806.0150, 148.8661
806.4971, 149.1215
806.9792, 149.6594
807.4613, 149.8752
807.9434, 149.4568
808.4255, 148.7745
808.9077, 148.7303
809.3898, 149.2007
809.8719, 149.6501
810.3540, 150.1663
810.8361, 150.2210
811.3182, 148.7088
811.8004, 146.4440
812.2825, 145.3226
812.7646, 146.9377
813.2467, 148.4214
813.7288, 149.3556
814.2109, 149.7730
814.6931, 149.7265
815.1752, 149.2036
815.6573, 148.2041
816.1394, 146.3217
816.6216, 144.6156
817.1037, 145.3726
817.5858, 147.7664
818.0679, 149.6347
818.5500, 149.6124
819.0322, 149.3331
819.5143, 149.6242
819.9964, 150.2083
820.4785, 150.4885
820.9606, 150.1843
821.4427, 150.0574
821.9249, 150.3225
822.4070, 150.7163
822.8891, 150.5853
823.3712, 149.9942
823.8533, 149.6968
824.3354, 150.0362
824.8176, 150.4783
825.2997, 150.3946
825.7818, 149.9956
826.2639, 149.6421
826.7460, 149.3319
827.2281, 149.2302
827.7103, 149.5256
828.1924, 149.9802
828.6745, 150.2953
829.1566, 150.4486
829.6387, 150.5661
830.1208, 150.7151
830.6030, 150.7086
831.0851, 149.9243
831.5672, 148.7507
832.0493, 148.3562
832.5314, 149.3246
833.0135, 150.4129
833.4957, 150.7109
833.9778, 150.6644
834.4599, 150.8007
834.9420, 151.5162
835.4241, 152.0208
835.9063, 152.4476
836.3884, 152.5054
836.8705, 151.5165
837.3526, 149.5335
837.8347, 148.5969
838.3168, 149.0795
838.7990, 149.9040
839.2811, 149.9450
839.7632, 149.6140
840.2453, 149.4796
840.7274, 149.6992
841.2095, 149.9561
841.6917, 150.2293
842.1738, 150.4298
842.6559, 150.4377
843.1380, 150.0664
843.6201, 150.2832
844.1022, 151.2775
844.5844, 152.2075
845.0665, 152.1038
845.5486, 151.3310
846.0307, 150.9428
846.5128, 151.0430
846.9949, 151.0927
847.4771, 150.3456
847.9592, 149.6833
848.4413, 149.9424
848.9234, 151.4858
849.4055, 152.4143
849.8876, 152.3794
850.3698, 152.1904
850.8519, 152.3201
851.3340, 152.7356
851.8161, 153.0771
852.2982, 153.3423
852.7803, 153.4084
853.2625, 153.1241
853.7446, 152.6323
854.2267, 151.9588
854.7088, 151.1472
855.1909, 150.5840
855.6730, 150.2185
856.1552, 150.3541
856.6373, 151.2600
857.1194, 152.8126
857.6015, 154.1703
858.0836, 155.4278
858.5657, 155.8306
859.0479, 154.4863
859.5300, 152.4398
860.0121, 151.7564
860.4942, 152.1563
860.9763, 152.6784
861.4584, 153.0503
861.9406, 153.2145
862.4227, 152.8916
862.9048, 152.3199
863.3869, 152.3886
863.8690, 153.6152
864.3511, 154.0849
864.8333, 152.9711
865.3154, 151.3370
865.7975, 151.7730
866.2796, 153.7716
866.7617, 155.0661
867.2438, 154.4136
867.7260, 153.5873
868.2081, 154.2197
868.6902, 155.4770
869.1723, 156.0668
869.6544, 155.1000
870.1365, 154.3223
870.6187, 153.8812
871.1008, 153.5993
871.5829, 153.1750
872.0650, 152.6314
872.5471, 152.4580
873.0292, 152.7636
873.5114, 153.2714
873.9935, 153.8901
874.4756, 154.4542
874.9578, 154.7092
875.4399, 154.4871
875.9220, 154.3534
876.4041, 154.7151
876.8862, 154.9828
877.3683, 154.6578
877.8505, 153.5635
878.3326, 153.1714
878.8147, 153.5626
879.2968, 154.0542
879.7789, 153.8381
880.2610, 153.4213
880.7432, 153.8864
881.2253, 155.2456
881.7074, 156.0799
882.1895, 155.2086
882.6716, 154.0946
883.1537, 153.4861
883.6359, 153.3762
884.1180, 153.5085
884.6001, 153.9826
885.0822, 154.2810
885.5643, 154.0323
886.0464, 153.5087
886.5286, 153.3520
887.0107, 153.5081
887.4928, 153.7538
887.9749, 153.7732
888.4570, 154.0452
888.9391, 155.2057
889.4213, 156.8238
889.9034, 157.5009
890.3855, 156.8058
890.8676, 156.1411
891.3497, 155.8401
891.8318, 155.6275
892.3140, 154.7957
892.7961, 153.5469
893.2782, 152.6458
893.7603, 152.2639
894.2424, 152.4448
894.7245, 153.9000
895.2067, 155.6437
895.6888, 156.4671
896.1709, 155.4178
896.6530, 154.6207
897.1351, 154.0891
897.6172, 153.8003
898.0994, 153.7639
898.5815, 153.9643
899.0636, 154.4249
899.5457, 155.1721
900.0278, 155.6452
900.5099, 155.2117
900.9921, 154.4074
901.4742, 153.6177
901.9563, 152.8543
902.4384, 152.5144
902.9205, 152.8489
903.4026, 153.2850
903.8848, 153.5131
904.3669, 153.5869
904.8490, 154.1670
905.3311, 155.2182
905.8132, 155.8941
906.2953, 155.0737
906.7775, 154.1027
907.2596, 154.5659
907.7417, 156.0635
908.2238, 157.1504
908.7059, 157.1085
909.1880, 156.9929
909.6702, 157.0872
910.1523, 157.2034
910.6344, 156.6365
911.1165, 155.4170
911.5986, 155.1269
912.0807, 156.5463
912.5629, 158.1863
913.0450, 158.3698
913.5271, 157.6503
914.0092, 156.8178
914.4913, 155.9066
914.9734, 155.2533
915.4556, 155.0121
915.9377, 154.9380
916.4198, 154.8431
916.9019, 154.7294
917.3840, 154.4358
917.8661, 153.8997
918.3483, 153.7016
918.8304, 154.7473
919.3125, 156.2184
919.7946, 157.0868
920.2767, 157.2365
920.7589, 157.3340
921.2410, 158.0713
921.7231, 158.2197
922.2052, 156.9429
922.6873, 154.5275
923.1694, 153.5990
923.6516, 154.1938
924.1337, 155.2226
924.6158, 156.5138
925.0979, 157.6151
925.5800, 157.6835
926.0621, 157.0781
926.5443, 156.6981
927.0264, 157.0269
927.5085, 157.4080
927.9906, 157.8166
928.4727, 158.1297
928.9548, 158.0557
929.4370, 157.5759
929.9191, 157.2922
930.4012, 157.3128
930.8833, 157.5493
931.3654, 158.1341
931.8475, 158.7738
932.3297, 159.0368
932.8118, 158.7270
933.2939, 158.4431
933.7761, 158.4611
934.2582, 158.3958
934.7403, 157.8727
935.2224, 156.8592
935.7045, 156.8934
936.1866, 158.0241
936.6688, 158.8148
937.1509, 157.4421
937.6330, 155.7462
938.1151, 156.3953
938.5972, 158.8593
939.0793, 160.1434
939.5615, 158.1929
940.0436, 156.3258
940.5257, 155.2649
941.0078, 154.9018
941.4899, 155.2027
941.9720, 156.1340
942.4542, 156.7549
942.9363, 156.6995
943.4184, 156.4869
943.9005, 156.7084
944.3826, 157.1171
944.8647, 157.3711
945.3469, 157.3009
945.8290, 157.2096
946.3111, 156.9991
946.7932, 156.9290
947.2753, 157.4289
947.7574, 158.4420
948.2396, 158.4385
948.7217, 157.3614
949.2038, 156.5118
949.6859, 157.3177
950.1680, 158.5014
950.6501, 158.7680
951.1323, 158.1235
951.6144, 158.0786
952.0965, 159.4262
952.5786, 160.3128
953.0607, 160.0387
953.5428, 159.0090
954.0250, 158.2734
954.5071, 157.8476
954.9892, 157.8936
955.4713, 158.8663
955.9534, 159.6575
956.4355, 158.9261
956.9177, 157.6763
957.3998, 157.4100
957.8819, 159.2392
958.3640, 160.2368
958.8461, 160.1572
959.3282, 159.6207
959.8104, 159.1523
960.2925, 158.7771
960.7746, 158.6903
961.2567, 158.9040
961.7388, 158.9754
962.2209, 158.3686
962.7031, 157.7312
963.1852, 157.5483
963.6673, 157.8131
964.1494, 157.9501
964.6315, 157.8464
965.1136, 158.0171
965.5958, 158.7841
966.0779, 159.8023
966.5600, 160.5248
967.0421, 160.9140
967.5242, 160.8250
968.0063, 159.5950
968.4885, 158.7213
968.9706, 159.0099
969.4527, 159.8336
969.9348, 160.4363
970.4169, 160.7633
970.8990, 161.1614
971.3812, 161.6798
971.8633, 162.0985
972.3454, 162.3594
972.8275, 162.2973
973.3096, 161.3167
973.7917, 159.4034
974.2739, 158.2896
974.7560, 159.5463
975.2381, 160.6643
975.7202, 160.4656
976.2023, 159.3492
976.6844, 159.4701
977.1666, 160.8138
977.6487, 162.0327
978.1308, 162.4913
978.6129, 162.7161
979.0950, 163.5151
979.5771, 164.3933
980.0593, 164.5448
980.5414, 162.8724
981.0235, 161.7780
981.5056, 161.5242
981.9877, 161.6104
982.4698, 161.5227
982.9520, 161.3097
983.4341, 161.3890
983.9162, 161.7791
984.3983, 161.9433
984.8804, 161.2824
985.3625, 160.4260
985.8447, 159.0705
986.3268, 159.4665
986.8089, 159.1924
987.2910, 160.0671
987.7731, 160.6488
988.2552, 160.9533
988.7374, 160.1501
989.2195, 160.7772
989.7016, 160.8311
990.1837, 160.8616
990.6658, 160.9644
991.1480, 161.4907
991.6301, 162.0730
992.1122, 162.3696
992.5944, 161.9627
993.0765, 160.6408
993.5586, 159.7164
994.0407, 159.1689
994.5228, 159.2784
995.0049, 161.1116
995.4871, 163.2331
995.9692, 163.4041
996.4513, 161.8637
996.9334, 160.8633
997.4155, 161.5321
997.8976, 162.3494
998.3798, 163.1058
998.8619, 163.6730
999.3440, 163.6304
999.8261, 163.0463
1000.308, 162.5806
1000.790, 162.4137
1001.272, 162.3761
1001.755, 162.3748
1002.237, 162.3973
1002.719, 162.4754
1003.201, 162.7549
1003.683, 162.5205
1004.165, 161.5157
1004.647, 160.6413
1005.129, 160.6593
1005.612, 161.2183
1006.094, 161.2211
1006.576, 160.7905
1007.058, 160.5034
1007.540, 160.4447
1008.022, 160.8272
1008.504, 162.3797
1008.986, 164.1937
1009.468, 164.5309
1009.951, 163.1434
1010.433, 162.3272
1010.915, 162.5093
1011.397, 162.9239
1011.879, 162.5154
1012.361, 161.9299
1012.843, 162.1497
1013.325, 163.4743
1013.807, 164.1513
1014.290, 163.5315
1014.772, 162.7589
1015.254, 162.3300
1015.736, 162.1371
1016.218, 161.6153
1016.700, 160.8542
1017.182, 160.3747
1017.664, 160.5345
1018.147, 160.8834
1018.629, 161.0414
1019.111, 161.2505
1019.593, 161.9599
1020.075, 163.5857
1020.557, 164.3792
1021.039, 164.1156
1021.521, 163.6276
1022.003, 163.7561
1022.486, 164.1858
1022.968, 164.4608
1023.450, 164.5301
1023.932, 164.2197
1024.414, 162.8709
1024.896, 161.8286
1025.378, 161.5793
1025.860, 161.8972
1026.343, 162.2188
1026.825, 162.5316
1027.307, 162.7189
1027.789, 162.7159
1028.271, 162.6826
1028.753, 163.0352
1029.235, 163.2847
1029.717, 162.6789
1030.199, 160.4860
1030.682, 159.9534
1031.164, 161.6391
1031.646, 163.4183
1032.128, 163.9516
1032.610, 163.6294
1033.092, 163.3847
1033.574, 163.1663
1034.056, 162.7920
1034.539, 161.6986
1035.021, 161.0302
1035.503, 161.3918
1035.985, 162.2063
1036.467, 162.8084
1036.949, 163.1955
1037.431, 163.2095
1037.913, 162.7977
1038.396, 162.3673
1038.878, 162.3636
1039.360, 162.4527
1039.842, 162.2819
1040.324, 161.8245
1040.806, 161.4781
1041.288, 161.2073
1041.770, 161.2036
1042.252, 161.6557
1042.734, 162.2355
1043.217, 161.9826
1043.699, 161.3233
1044.181, 161.4884
1044.663, 163.4129
1045.145, 164.8659
1045.627, 164.8956
1046.109, 164.1602
1046.591, 162.8887
1047.074, 161.0195
1047.556, 160.4594
1048.038, 161.2088
1048.520, 161.9381
1049.002, 161.5347
1049.484, 160.9255
1049.966, 160.7821
1050.448, 161.0882
1050.931, 161.8057
1051.413, 163.1884
1051.895, 164.4156
1052.377, 165.5226
1052.859, 166.1467
1053.341, 165.6376
1053.823, 164.3769
1054.305, 162.9585
1054.787, 161.4510
1055.270, 160.7610
1055.752, 162.1552
1056.234, 163.5307
1056.716, 163.8983
1057.198, 163.5631
1057.680, 163.7464
1058.162, 164.4083
1058.644, 164.9795
1059.126, 165.3836
1059.609, 165.3590
1060.091, 164.2518
1060.573, 162.8218
1061.055, 161.9161
1061.537, 161.6253
1062.019, 161.8815
1062.501, 162.8464
1062.983, 163.7722
1063.466, 163.9763
1063.948, 163.9087
1064.430, 164.7898
1064.912, 166.1480
1065.394, 166.5651
1065.876, 164.1245
1066.358, 162.5860
1066.840, 162.8478
1067.323, 163.8970
1067.805, 164.6346
1068.287, 165.0667
1068.769, 165.1338
1069.251, 164.8338
1069.733, 164.4747
1070.215, 163.9020
1070.697, 163.6752
1071.179, 164.4721
1071.661, 165.9798
1072.144, 166.9271
1072.626, 167.2895
1073.108, 167.0985
1073.590, 166.1811
1074.072, 165.2664
1074.554, 165.3256
1075.036, 165.9339
1075.518, 166.6770
1076.001, 167.6777
1076.483, 167.7522
1076.965, 166.3130
1077.447, 165.0607
1077.929, 165.0292
1078.411, 165.7291
1078.893, 165.7098
1079.375, 165.1818
1079.858, 164.8247
1080.340, 164.8208
1080.822, 165.1588
1081.304, 166.6755
1081.786, 167.8871
1082.268, 166.9878
1082.750, 163.9167
1083.232, 162.6378
1083.714, 163.2204
1084.197, 164.2691
1084.679, 165.0599
1085.161, 165.6791
1085.643, 166.2069
1086.125, 166.6081
1086.607, 166.8192
1087.089, 166.8479
1087.571, 166.6131
1088.054, 166.0219
1088.536, 165.4807
1089.018, 165.6097
1089.500, 166.0229
1089.982, 166.0779
1090.464, 165.6960
1090.946, 165.6515
1091.428, 166.4619
1091.911, 167.0061
1092.393, 166.8450
1092.875, 166.2950
1093.357, 166.0324
1093.839, 166.0248
1094.321, 166.2446
1094.803, 166.8684
1095.285, 167.1173
1095.767, 165.9247
1096.250, 164.8853
1096.732, 165.3277
1097.214, 167.1169
1097.696, 167.1826
1098.178, 165.6284
1098.660, 164.5992
1099.142, 165.7616
1099.624, 167.1913
1100.106, 167.2915
1100.589, 166.7542
1101.071, 166.7417
1101.553, 167.6519
1102.035, 167.8448
1102.517, 167.1770
1102.999, 166.4258
1103.481, 165.9609
1103.963, 165.9849
1104.446, 167.4247
1104.928, 169.7259
1105.410, 170.5729
1105.892, 168.0763
1106.374, 166.4394
1106.856, 166.3471
1107.338, 167.0218
1107.820, 167.6520
1108.302, 168.1644
1108.785, 168.3580
1109.267, 168.2096
1109.749, 168.0451
1110.231, 168.0901
1110.713, 168.0332
1111.195, 167.6911
1111.677, 167.2174
1112.159, 166.9519
1112.641, 166.9187
1113.124, 167.4146
1113.606, 168.7407
1114.088, 169.6406
1114.570, 168.4182
1115.052, 167.1394
1115.534, 167.8169
1116.016, 170.3059
1116.498, 170.8415
1116.981, 169.3524
1117.463, 168.2472
1117.945, 168.8321
1118.427, 169.8480
1118.909, 170.2548
1119.391, 170.1996
1119.873, 169.8111
1120.355, 168.8307
1120.838, 168.4868
1121.320, 168.9453
1121.802, 169.3169
1122.284, 168.6392
1122.766, 167.7106
1123.248, 167.9849
1123.730, 169.0107
1124.212, 169.5565
1124.694, 168.7997
1125.177, 168.1925
1125.659, 167.7856
1126.141, 167.6531
1126.623, 168.1135
1127.105, 168.8574
1127.587, 168.9414
1128.069, 168.4200
1128.551, 168.0683
1129.033, 168.6286
1129.516, 168.8365
1129.998, 167.9688
1130.480, 166.9588
1130.962, 167.8117
1131.444, 170.0387
1131.926, 170.9719
1132.408, 170.1888
1132.890, 169.3138
1133.373, 169.4088
1133.855, 169.6635
1134.337, 169.5139
1134.819, 169.1688
1135.301, 169.6385
1135.783, 170.8675
1136.265, 171.0837
1136.747, 169.5069
1137.229, 168.1379
1137.712, 169.4816
1138.194, 171.2232
1138.676, 171.0016
1139.158, 168.7926
1139.640, 167.0925
1140.122, 165.8218
1140.604, 165.8874
1141.086, 168.4892
1141.569, 171.0515
1142.051, 169.7764
1142.533, 167.1211
1143.015, 166.5998
1143.497, 169.6738
1143.979, 171.5406
1144.461, 172.0134
1144.943, 171.9491
1145.426, 171.8034
1145.908, 171.4798
1146.390, 170.5385
1146.872, 169.3514
1147.354, 168.6886
1147.836, 169.0511
1148.318, 169.6135
1148.800, 170.4704
1149.282, 171.2469
1149.765, 171.6184
1150.247, 171.6820
1150.729, 171.5650
1151.211, 171.3251
1151.693, 171.1701
1152.175, 171.5128
1152.657, 171.4191
1153.139, 170.4710
1153.621, 169.4809
1154.104, 169.4528
1154.586, 170.1795
1155.068, 171.1661
1155.550, 172.3233
1156.032, 173.0479
1156.514, 172.9472
1156.996, 172.4330
1157.478, 171.3818
1157.961, 170.2926
1158.443, 170.1816
1158.925, 170.8767
1159.407, 170.1459
1159.889, 171.6709
1160.371, 172.5493
1160.853, 172.8158
1161.335, 170.6378
1161.818, 171.6165
1162.300, 171.3301
1162.782, 170.9918
1163.264, 172.4146
1163.746, 170.5922
1164.228, 171.9871
1164.710, 172.0977
1165.192, 172.7961
1165.674, 172.2217
1166.156, 172.0404
1166.639, 173.1324
1167.121, 173.5194
1167.603, 172.7984
1168.085, 173.5342
1168.567, 171.9686
1169.049, 172.0154
1169.531, 172.6564
1170.013, 173.3792
1170.496, 173.5427
1170.978, 173.1216
1171.460, 173.4380
1171.942, 174.5587
1172.424, 175.1789
1172.906, 174.4552
1173.388, 173.4435
1173.870, 173.1182
1174.353, 173.1891
1174.835, 173.3677
1175.317, 173.7388
1175.799, 173.3897
1176.281, 172.1697
1176.763, 171.4541
1177.245, 172.5472
1177.727, 173.9646
1178.209, 173.7576
1178.692, 172.7834
1179.174, 172.5499
1179.656, 173.6033
1180.138, 174.3293
1180.620, 174.6793
1181.102, 174.9751
1181.584, 175.9346
1182.066, 176.6037
1182.548, 174.7953
1183.031, 171.8759
1183.513, 171.2229
1183.995, 175.0771
1184.477, 177.0655
1184.959, 176.6747
1185.441, 175.4540
1185.923, 174.3911
1186.405, 173.5876
1186.888, 173.1003
1187.370, 172.9939
1187.852, 173.5806
1188.334, 175.8134
1188.816, 176.6718
1189.298, 175.5689
1189.780, 174.1060
1190.262, 173.9437
1190.745, 174.4779
1191.227, 174.7943
1191.709, 174.9226
1192.191, 175.3956
1192.673, 177.1810
1193.155, 177.3589
1193.637, 174.9773
1194.119, 172.4328
1194.601, 172.9290
1195.084, 174.9796
1195.566, 176.4407
1196.048, 177.1299
1196.530, 177.1243
1197.012, 175.8352
1197.494, 175.1800
1197.976, 175.6952
1198.458, 176.5514
1198.941, 176.3642
1199.423, 177.0781
1199.905, 176.2206
1200.387, 177.7192
1200.869, 178.6066
1201.351, 178.5252
1201.833, 177.8009
1202.315, 176.2043
1202.797, 174.6267
1203.280, 174.9157
1203.762, 176.0838
1204.244, 176.2114
1204.726, 174.9410
1205.208, 174.4729
1205.690, 175.5015
1206.172, 176.7410
1206.654, 178.0502
1207.136, 178.9585
1207.619, 177.9917
1208.101, 176.2887
1208.583, 176.1712
1209.065, 178.3964
1209.547, 179.1838
1210.029, 177.2779
1210.511, 175.5453
1210.993, 174.9569
1211.476, 175.1534
1211.958, 175.8390
1212.440, 176.6785
1212.922, 177.0036
1213.404, 176.5708
1213.886, 176.2323
1214.368, 176.0658
1214.850, 176.0574
1215.333, 176.2519
1215.815, 176.5287
1216.297, 176.7010
1216.779, 176.7850
1217.261, 176.8272
1217.743, 176.8755
1218.225, 176.6731
1218.707, 176.0666
1219.189, 175.5827
1219.672, 175.4178
1220.154, 175.5800
1220.636, 176.3064
1221.118, 177.2955
1221.600, 178.0325
1222.082, 178.3897
1222.564, 178.3946
1223.046, 177.9252
1223.528, 177.4712
1224.011, 177.1622
1224.493, 177.1666
1224.975, 178.2878
1225.457, 179.7602
1225.939, 180.2146
1226.421, 178.8835
1226.903, 177.5984
1227.385, 176.2047
1227.868, 175.4814
1228.350, 176.0711
1228.832, 177.3476
1229.314, 178.8500
1229.796, 180.1777
1230.278, 180.5599
1230.760, 179.4232
1231.242, 178.4524
1231.724, 177.5659
1232.207, 177.2162
1232.689, 177.9873
1233.171, 179.1056
1233.653, 179.7405
1234.135, 179.9666
1234.617, 179.8294
1235.099, 179.0287
1235.581, 179.1426
1236.063, 180.3682
1236.546, 181.1455
1237.028, 180.0888
1237.510, 178.5375
1237.992, 177.5895
1238.474, 177.2346
1238.956, 177.5644
1239.438, 178.7471
1239.920, 179.8090
1240.403, 180.7624
1240.885, 181.1920
1241.367, 180.5018
1241.849, 179.4964
1242.331, 178.6754
1242.813, 178.0912
1243.295, 177.8034
1243.777, 177.7890
1244.260, 178.1810
1244.742, 178.9824
1245.224, 179.8654
1245.706, 181.1442
1246.188, 181.8874
1246.670, 181.1597
1247.152, 179.6624
1247.634, 178.2702
1248.116, 176.9099
1248.599, 176.5684
1249.081, 177.2134
1249.563, 178.2957
1250.045, 180.0522
1250.527, 181.4947
1251.009, 182.0118
1251.491, 181.9846
1251.973, 181.7356
1252.456, 181.2727
1252.938, 180.7857
1253.420, 180.2695
1253.902, 179.6638
1254.384, 178.3207
1254.866, 177.6970
1255.348, 178.9444
1255.830, 180.4971
1256.313, 180.8226
1256.795, 180.1871
1257.277, 180.4332
1257.759, 181.3563
1258.241, 181.8308
1258.723, 180.5151
1259.205, 179.9392
1259.687, 181.0695
1260.169, 182.2820
1260.651, 181.7315
1261.134, 182.5404
1261.616, 180.5799
1262.098, 182.2785
1262.580, 183.1876
1263.062, 181.9923
1263.544, 180.5691
1264.026, 178.6576
1264.508, 177.5488
1264.991, 179.3031
1265.473, 182.0788
1265.955, 181.7034
1266.437, 179.4206
1266.919, 178.6060
1267.401, 181.8120
1267.883, 183.2817
1268.365, 182.5840
1268.848, 181.5277
1269.330, 181.5261
1269.812, 181.9498
1270.294, 182.1618
1270.776, 182.1337
1271.258, 181.7426
1271.740, 180.7102
1272.222, 180.3006
1272.704, 180.5874
1273.187, 180.9653
1273.669, 180.9724
1274.151, 180.9261
1274.633, 181.1386
1275.115, 181.4650
1275.597, 181.6836
1276.079, 181.7869
1276.561, 181.8002
1277.043, 181.7267
1277.526, 181.5923
1278.008, 181.3454
1278.490, 181.1279
1278.972, 180.8955
1279.454, 180.8510
1279.936, 181.2804
1280.418, 182.1541
1280.900, 182.9047
1281.383, 183.4686
1281.865, 183.4641
1282.347, 181.7686
1282.829, 180.8149
1283.311, 181.9841
1283.793, 183.4803
1284.275, 183.9427
1284.757, 183.6178
1285.240, 183.4048
##END=



