##NAMES=Dondoellite
##RRUFFID=R210003
##IDEAL CHEMISTRY=Ca_2_Fe^2+^(PO_4_)_2_&#183;2H_2_O
##LOCALITY=Grizzly Bear Creek, Stoneman Camp (Area B; Area 2), Rapid Creek, Dawson mining district, Yukon, Canada
##OWNER=RRUFF
##SOURCE=Donald Doell
##DESCRIPTION=Spherical aggregates of radiating bladed straw-yellow or colorless crystals, on top of orange-brown siderite and white apatite. Type sample
##STATUS=The identification of this mineral is confirmed by single-crystal X-ray diffraction and chemical analysis.
##URL=rruff.info/R210003
##MEASURED CHEMISTRY=Ca_1.99_(Fe_0.89_Mg_0.13_Mn_0.01_)_Ʃ=1.03_(P_1.00_O_4_)_2_·2H_2_O
8.813672e+001, 3.254631e+002
8.861884e+001, 3.301604e+002
8.910095e+001, 3.346568e+002
8.958307e+001, 3.394387e+002
9.006519e+001, 3.440596e+002
9.054730e+001, 3.476829e+002
9.102942e+001, 3.506069e+002
9.151154e+001, 3.532842e+002
9.199365e+001, 3.566789e+002
9.247577e+001, 3.603603e+002
9.295789e+001, 3.629128e+002
9.344000e+001, 3.628746e+002
9.392212e+001, 3.611465e+002
9.440424e+001, 3.604479e+002
9.488635e+001, 3.613471e+002
9.536847e+001, 3.630483e+002
9.585059e+001, 3.645627e+002
9.633270e+001, 3.658675e+002
9.681482e+001, 3.667728e+002
9.729694e+001, 3.665714e+002
9.777905e+001, 3.654164e+002
9.826117e+001, 3.658320e+002
9.874329e+001, 3.681191e+002
9.922540e+001, 3.718707e+002
9.970752e+001, 3.767838e+002
1.001896e+002, 3.833242e+002
1.006718e+002, 3.889626e+002
1.011539e+002, 3.914427e+002
1.016360e+002, 3.898726e+002
1.021181e+002, 3.896350e+002
1.026002e+002, 3.920802e+002
1.030823e+002, 3.966094e+002
1.035645e+002, 3.987065e+002
1.040466e+002, 3.977941e+002
1.045287e+002, 3.954099e+002
1.050108e+002, 3.925947e+002
1.054929e+002, 3.884463e+002
1.059750e+002, 3.855757e+002
1.064572e+002, 3.846853e+002
1.069393e+002, 3.859879e+002
1.074214e+002, 3.873087e+002
1.079035e+002, 3.891334e+002
1.083856e+002, 3.908059e+002
1.088677e+002, 3.915789e+002
1.093499e+002, 3.902813e+002
1.098320e+002, 3.892928e+002
1.103141e+002, 3.889354e+002
1.107962e+002, 3.889760e+002
1.112783e+002, 3.903717e+002
1.117604e+002, 3.937376e+002
1.122426e+002, 3.983987e+002
1.127247e+002, 4.032729e+002
1.132068e+002, 4.080251e+002
1.136889e+002, 4.130973e+002
1.141710e+002, 4.187490e+002
1.146531e+002, 4.255866e+002
1.151353e+002, 4.318833e+002
1.156174e+002, 4.374545e+002
1.160995e+002, 4.422277e+002
1.165816e+002, 4.461058e+002
1.170637e+002, 4.469946e+002
1.175458e+002, 4.481151e+002
1.180280e+002, 4.518189e+002
1.185101e+002, 4.601830e+002
1.189922e+002, 4.693113e+002
1.194743e+002, 4.766447e+002
1.199564e+002, 4.827214e+002
1.204385e+002, 4.898140e+002
1.209207e+002, 4.999222e+002
1.214028e+002, 5.115392e+002
1.218849e+002, 5.229537e+002
1.223670e+002, 5.342983e+002
1.228491e+002, 5.448525e+002
1.233312e+002, 5.549821e+002
1.238134e+002, 5.645308e+002
1.242955e+002, 5.703776e+002
1.247776e+002, 5.691931e+002
1.252597e+002, 5.623809e+002
1.257418e+002, 5.528448e+002
1.262239e+002, 5.390070e+002
1.267061e+002, 5.237653e+002
1.271882e+002, 5.125438e+002
1.276703e+002, 5.054767e+002
1.281524e+002, 5.000663e+002
1.286345e+002, 4.935310e+002
1.291166e+002, 4.862778e+002
1.295988e+002, 4.800944e+002
1.300809e+002, 4.766643e+002
1.305630e+002, 4.751245e+002
1.310451e+002, 4.721659e+002
1.315272e+002, 4.672726e+002
1.320093e+002, 4.622842e+002
1.324915e+002, 4.603448e+002
1.329736e+002, 4.614507e+002
1.334557e+002, 4.625050e+002
1.339378e+002, 4.612018e+002
1.344199e+002, 4.577464e+002
1.349020e+002, 4.560439e+002
1.353842e+002, 4.566613e+002
1.358663e+002, 4.587676e+002
1.363484e+002, 4.607720e+002
1.368305e+002, 4.626690e+002
1.373126e+002, 4.643634e+002
1.377947e+002, 4.654147e+002
1.382769e+002, 4.655347e+002
1.387590e+002, 4.672197e+002
1.392411e+002, 4.715544e+002
1.397232e+002, 4.774272e+002
1.402053e+002, 4.801720e+002
1.406874e+002, 4.791293e+002
1.411696e+002, 4.763995e+002
1.416517e+002, 4.733047e+002
1.421338e+002, 4.696581e+002
1.426159e+002, 4.661368e+002
1.430980e+002, 4.626406e+002
1.435801e+002, 4.592769e+002
1.440623e+002, 4.568975e+002
1.445444e+002, 4.559472e+002
1.450265e+002, 4.555422e+002
1.455086e+002, 4.550034e+002
1.459907e+002, 4.542037e+002
1.464728e+002, 4.535006e+002
1.469550e+002, 4.530229e+002
1.474371e+002, 4.528047e+002
1.479192e+002, 4.522885e+002
1.484013e+002, 4.507558e+002
1.488834e+002, 4.493434e+002
1.493655e+002, 4.491114e+002
1.498477e+002, 4.516693e+002
1.503298e+002, 4.536812e+002
1.508119e+002, 4.542389e+002
1.512940e+002, 4.529296e+002
1.517761e+002, 4.524747e+002
1.522583e+002, 4.538152e+002
1.527404e+002, 4.557233e+002
1.532225e+002, 4.569224e+002
1.537046e+002, 4.556380e+002
1.541867e+002, 4.551733e+002
1.546688e+002, 4.567982e+002
1.551510e+002, 4.613234e+002
1.556331e+002, 4.650090e+002
1.561152e+002, 4.665872e+002
1.565973e+002, 4.671414e+002
1.570794e+002, 4.681025e+002
1.575615e+002, 4.697965e+002
1.580437e+002, 4.719544e+002
1.585258e+002, 4.743690e+002
1.590079e+002, 4.768040e+002
1.594900e+002, 4.801686e+002
1.599721e+002, 4.847737e+002
1.604542e+002, 4.904758e+002
1.609364e+002, 4.970223e+002
1.614185e+002, 5.043504e+002
1.619006e+002, 5.124705e+002
1.623827e+002, 5.214816e+002
1.628648e+002, 5.316451e+002
1.633469e+002, 5.420857e+002
1.638291e+002, 5.528763e+002
1.643112e+002, 5.636352e+002
1.647933e+002, 5.737418e+002
1.652754e+002, 5.859403e+002
1.657575e+002, 5.956819e+002
1.662396e+002, 5.991430e+002
1.667218e+002, 5.938888e+002
1.672039e+002, 5.854884e+002
1.676860e+002, 5.765101e+002
1.681681e+002, 5.670475e+002
1.686502e+002, 5.570614e+002
1.691323e+002, 5.461574e+002
1.696145e+002, 5.350004e+002
1.700966e+002, 5.241473e+002
1.705787e+002, 5.131774e+002
1.710608e+002, 5.033798e+002
1.715429e+002, 4.961895e+002
1.720250e+002, 4.912277e+002
1.725072e+002, 4.870588e+002
1.729893e+002, 4.826717e+002
1.734714e+002, 4.784213e+002
1.739535e+002, 4.747990e+002
1.744356e+002, 4.719643e+002
1.749177e+002, 4.697547e+002
1.753999e+002, 4.679106e+002
1.758820e+002, 4.664479e+002
1.763641e+002, 4.656138e+002
1.768462e+002, 4.658227e+002
1.773283e+002, 4.667423e+002
1.778104e+002, 4.677178e+002
1.782926e+002, 4.683531e+002
1.787747e+002, 4.691400e+002
1.792568e+002, 4.710230e+002
1.797389e+002, 4.739383e+002
1.802210e+002, 4.769022e+002
1.807031e+002, 4.787663e+002
1.811853e+002, 4.799561e+002
1.816674e+002, 4.815688e+002
1.821495e+002, 4.841110e+002
1.826316e+002, 4.871631e+002
1.831137e+002, 4.898541e+002
1.835958e+002, 4.921987e+002
1.840780e+002, 4.944896e+002
1.845601e+002, 4.975233e+002
1.850422e+002, 5.008964e+002
1.855243e+002, 5.030737e+002
1.860064e+002, 5.028768e+002
1.864885e+002, 5.013476e+002
1.869707e+002, 5.013630e+002
1.874528e+002, 5.030433e+002
1.879349e+002, 5.050568e+002
1.884170e+002, 5.059879e+002
1.888991e+002, 5.059607e+002
1.893812e+002, 5.058803e+002
1.898634e+002, 5.055720e+002
1.903455e+002, 5.054630e+002
1.908276e+002, 5.074086e+002
1.913097e+002, 5.116552e+002
1.917918e+002, 5.167674e+002
1.922739e+002, 5.209213e+002
1.927561e+002, 5.242043e+002
1.932382e+002, 5.283443e+002
1.937203e+002, 5.345477e+002
1.942024e+002, 5.422258e+002
1.946845e+002, 5.481700e+002
1.951666e+002, 5.521608e+002
1.956488e+002, 5.549664e+002
1.961309e+002, 5.576429e+002
1.966130e+002, 5.602750e+002
1.970951e+002, 5.616406e+002
1.975772e+002, 5.613691e+002
1.980593e+002, 5.594909e+002
1.985415e+002, 5.560019e+002
1.990236e+002, 5.505543e+002
1.995057e+002, 5.445011e+002
1.999878e+002, 5.394661e+002
2.004699e+002, 5.354683e+002
2.009520e+002, 5.324720e+002
2.014342e+002, 5.306036e+002
2.019163e+002, 5.298488e+002
2.023984e+002, 5.296725e+002
2.028805e+002, 5.300851e+002
2.033626e+002, 5.310930e+002
2.038447e+002, 5.326877e+002
2.043269e+002, 5.348602e+002
2.048090e+002, 5.377247e+002
2.052911e+002, 5.415457e+002
2.057732e+002, 5.463705e+002
2.062553e+002, 5.502347e+002
2.067374e+002, 5.523998e+002
2.072196e+002, 5.547288e+002
2.077017e+002, 5.601594e+002
2.081838e+002, 5.695327e+002
2.086659e+002, 5.790743e+002
2.091480e+002, 5.876787e+002
2.096301e+002, 5.954234e+002
2.101123e+002, 6.019312e+002
2.105944e+002, 6.071528e+002
2.110765e+002, 6.112504e+002
2.115586e+002, 6.144225e+002
2.120407e+002, 6.166295e+002
2.125228e+002, 6.179883e+002
2.130050e+002, 6.184030e+002
2.134871e+002, 6.177964e+002
2.139692e+002, 6.169723e+002
2.144513e+002, 6.158708e+002
2.149334e+002, 6.146162e+002
2.154155e+002, 6.131854e+002
2.158977e+002, 6.111335e+002
2.163798e+002, 6.100295e+002
2.168619e+002, 6.106832e+002
2.173440e+002, 6.134149e+002
2.178261e+002, 6.151189e+002
2.183082e+002, 6.150603e+002
2.187904e+002, 6.147037e+002
2.192725e+002, 6.162994e+002
2.197546e+002, 6.207953e+002
2.202367e+002, 6.251570e+002
2.207188e+002, 6.284232e+002
2.212009e+002, 6.304615e+002
2.216831e+002, 6.324728e+002
2.221652e+002, 6.340140e+002
2.226473e+002, 6.359510e+002
2.231294e+002, 6.396238e+002
2.236115e+002, 6.460651e+002
2.240936e+002, 6.522474e+002
2.245758e+002, 6.574562e+002
2.250579e+002, 6.615994e+002
2.255400e+002, 6.652651e+002
2.260221e+002, 6.686085e+002
2.265042e+002, 6.713420e+002
2.269863e+002, 6.730132e+002
2.274685e+002, 6.734377e+002
2.279506e+002, 6.731620e+002
2.284327e+002, 6.724176e+002
2.289148e+002, 6.712853e+002
2.293969e+002, 6.688912e+002
2.298790e+002, 6.650302e+002
2.303612e+002, 6.600595e+002
2.308433e+002, 6.544255e+002
2.313254e+002, 6.480757e+002
2.318075e+002, 6.410155e+002
2.322896e+002, 6.332025e+002
2.327717e+002, 6.246488e+002
2.332539e+002, 6.153255e+002
2.337360e+002, 6.043419e+002
2.342181e+002, 5.936046e+002
2.347002e+002, 5.854865e+002
2.351823e+002, 5.819786e+002
2.356644e+002, 5.776136e+002
2.361466e+002, 5.708246e+002
2.366287e+002, 5.613550e+002
2.371108e+002, 5.529965e+002
2.375929e+002, 5.455282e+002
2.380750e+002, 5.395623e+002
2.385571e+002, 5.359237e+002
2.390393e+002, 5.355313e+002
2.395214e+002, 5.358239e+002
2.400035e+002, 5.365940e+002
2.404856e+002, 5.379172e+002
2.409677e+002, 5.383317e+002
2.414498e+002, 5.371317e+002
2.419320e+002, 5.356908e+002
2.424141e+002, 5.352015e+002
2.428962e+002, 5.354403e+002
2.433783e+002, 5.370767e+002
2.438604e+002, 5.407004e+002
2.443425e+002, 5.462975e+002
2.448247e+002, 5.509725e+002
2.453068e+002, 5.547384e+002
2.457889e+002, 5.575311e+002
2.462710e+002, 5.594127e+002
2.467531e+002, 5.607343e+002
2.472352e+002, 5.603654e+002
2.477174e+002, 5.576110e+002
2.481995e+002, 5.526492e+002
2.486816e+002, 5.484552e+002
2.491637e+002, 5.456630e+002
2.496458e+002, 5.429081e+002
2.501279e+002, 5.391506e+002
2.506101e+002, 5.341099e+002
2.510922e+002, 5.286512e+002
2.515743e+002, 5.228398e+002
2.520564e+002, 5.167103e+002
2.525385e+002, 5.105153e+002
2.530206e+002, 5.035707e+002
2.535028e+002, 4.974380e+002
2.539849e+002, 4.937301e+002
2.544670e+002, 4.941397e+002
2.549491e+002, 4.926267e+002
2.554312e+002, 4.877916e+002
2.559133e+002, 4.804218e+002
2.563955e+002, 4.744962e+002
2.568776e+002, 4.703061e+002
2.573597e+002, 4.670569e+002
2.578418e+002, 4.644212e+002
2.583239e+002, 4.627913e+002
2.588061e+002, 4.605234e+002
2.592882e+002, 4.570179e+002
2.597703e+002, 4.528239e+002
2.602524e+002, 4.502892e+002
2.607345e+002, 4.503017e+002
2.612166e+002, 4.503271e+002
2.616988e+002, 4.486857e+002
2.621809e+002, 4.445013e+002
2.626630e+002, 4.417679e+002
2.631451e+002, 4.412167e+002
2.636272e+002, 4.420020e+002
2.641093e+002, 4.416650e+002
2.645915e+002, 4.395532e+002
2.650736e+002, 4.378141e+002
2.655557e+002, 4.377551e+002
2.660378e+002, 4.400624e+002
2.665199e+002, 4.411867e+002
2.670020e+002, 4.406740e+002
2.674842e+002, 4.392696e+002
2.679663e+002, 4.384686e+002
2.684484e+002, 4.383006e+002
2.689305e+002, 4.386355e+002
2.694126e+002, 4.395080e+002
2.698947e+002, 4.410264e+002
2.703769e+002, 4.425309e+002
2.708590e+002, 4.441252e+002
2.713411e+002, 4.455676e+002
2.718232e+002, 4.460357e+002
2.723053e+002, 4.449605e+002
2.727874e+002, 4.450968e+002
2.732696e+002, 4.481042e+002
2.737517e+002, 4.542347e+002
2.742338e+002, 4.581843e+002
2.747159e+002, 4.593879e+002
2.751980e+002, 4.595277e+002
2.756801e+002, 4.611742e+002
2.761623e+002, 4.647443e+002
2.766444e+002, 4.672293e+002
2.771265e+002, 4.668626e+002
2.776086e+002, 4.639927e+002
2.780907e+002, 4.646475e+002
2.785728e+002, 4.695995e+002
2.790550e+002, 4.758748e+002
2.795371e+002, 4.799084e+002
2.800192e+002, 4.814816e+002
2.805013e+002, 4.838803e+002
2.809834e+002, 4.881833e+002
2.814655e+002, 4.940282e+002
2.819477e+002, 4.997545e+002
2.824298e+002, 5.054020e+002
2.829119e+002, 5.105053e+002
2.833940e+002, 5.142526e+002
2.838761e+002, 5.166689e+002
2.843582e+002, 5.195558e+002
2.848404e+002, 5.233799e+002
2.853225e+002, 5.278795e+002
2.858046e+002, 5.323195e+002
2.862867e+002, 5.366490e+002
2.867688e+002, 5.409883e+002
2.872509e+002, 5.463018e+002
2.877331e+002, 5.522179e+002
2.882152e+002, 5.551276e+002
2.886973e+002, 5.537211e+002
2.891794e+002, 5.499149e+002
2.896615e+002, 5.475588e+002
2.901436e+002, 5.466266e+002
2.906258e+002, 5.463916e+002
2.911079e+002, 5.473095e+002
2.915900e+002, 5.487709e+002
2.920721e+002, 5.479557e+002
2.925542e+002, 5.442807e+002
2.930363e+002, 5.388951e+002
2.935185e+002, 5.331563e+002
2.940006e+002, 5.270662e+002
2.944827e+002, 5.211739e+002
2.949648e+002, 5.156716e+002
2.954469e+002, 5.104849e+002
2.959290e+002, 5.055876e+002
2.964112e+002, 5.009987e+002
2.968933e+002, 4.964359e+002
2.973754e+002, 4.915213e+002
2.978575e+002, 4.863738e+002
2.983396e+002, 4.813175e+002
2.988217e+002, 4.765366e+002
2.993039e+002, 4.719683e+002
2.997860e+002, 4.673853e+002
3.002681e+002, 4.627003e+002
3.007502e+002, 4.587599e+002
3.012323e+002, 4.572783e+002
3.017144e+002, 4.572483e+002
3.021966e+002, 4.563181e+002
3.026787e+002, 4.525743e+002
3.031608e+002, 4.479882e+002
3.036429e+002, 4.449927e+002
3.041250e+002, 4.435576e+002
3.046071e+002, 4.425424e+002
3.050893e+002, 4.409044e+002
3.055714e+002, 4.391374e+002
3.060535e+002, 4.380806e+002
3.065356e+002, 4.380458e+002
3.070177e+002, 4.387344e+002
3.074998e+002, 4.403236e+002
3.079820e+002, 4.426157e+002
3.084641e+002, 4.444871e+002
3.089462e+002, 4.443494e+002
3.094283e+002, 4.437784e+002
3.099104e+002, 4.445951e+002
3.103925e+002, 4.477376e+002
3.108747e+002, 4.514125e+002
3.113568e+002, 4.546221e+002
3.118389e+002, 4.574139e+002
3.123210e+002, 4.599084e+002
3.128031e+002, 4.611380e+002
3.132852e+002, 4.627445e+002
3.137674e+002, 4.663520e+002
3.142495e+002, 4.729030e+002
3.147316e+002, 4.791704e+002
3.152137e+002, 4.828228e+002
3.156958e+002, 4.851523e+002
3.161779e+002, 4.883654e+002
3.166601e+002, 4.942827e+002
3.171422e+002, 5.005275e+002
3.176243e+002, 5.058964e+002
3.181064e+002, 5.101704e+002
3.185885e+002, 5.139572e+002
3.190706e+002, 5.175496e+002
3.195528e+002, 5.207332e+002
3.200349e+002, 5.232634e+002
3.205170e+002, 5.240344e+002
3.209991e+002, 5.251366e+002
3.214812e+002, 5.277791e+002
3.219633e+002, 5.320137e+002
3.224455e+002, 5.349724e+002
3.229276e+002, 5.350878e+002
3.234097e+002, 5.342698e+002
3.238918e+002, 5.339476e+002
3.243739e+002, 5.345160e+002
3.248560e+002, 5.353733e+002
3.253382e+002, 5.369093e+002
3.258203e+002, 5.388951e+002
3.263024e+002, 5.397989e+002
3.267845e+002, 5.399419e+002
3.272666e+002, 5.386690e+002
3.277487e+002, 5.355773e+002
3.282309e+002, 5.281698e+002
3.287130e+002, 5.224319e+002
3.291951e+002, 5.196150e+002
3.296772e+002, 5.184323e+002
3.301593e+002, 5.155850e+002
3.306414e+002, 5.095860e+002
3.311236e+002, 5.036844e+002
3.316057e+002, 4.991165e+002
3.320878e+002, 4.966776e+002
3.325699e+002, 4.931024e+002
3.330520e+002, 4.878026e+002
3.335341e+002, 4.817914e+002
3.340163e+002, 4.766022e+002
3.344984e+002, 4.727995e+002
3.349805e+002, 4.687910e+002
3.354626e+002, 4.639058e+002
3.359447e+002, 4.580487e+002
3.364268e+002, 4.534767e+002
3.369090e+002, 4.506563e+002
3.373911e+002, 4.483394e+002
3.378732e+002, 4.452808e+002
3.383553e+002, 4.412598e+002
3.388374e+002, 4.373089e+002
3.393195e+002, 4.332331e+002
3.398017e+002, 4.293971e+002
3.402838e+002, 4.277484e+002
3.407659e+002, 4.288750e+002
3.412480e+002, 4.300651e+002
3.417301e+002, 4.290746e+002
3.422122e+002, 4.257901e+002
3.426944e+002, 4.233806e+002
3.431765e+002, 4.224352e+002
3.436586e+002, 4.221260e+002
3.441407e+002, 4.206864e+002
3.446228e+002, 4.181033e+002
3.451049e+002, 4.154341e+002
3.455871e+002, 4.131129e+002
3.460692e+002, 4.111548e+002
3.465513e+002, 4.099319e+002
3.470334e+002, 4.095674e+002
3.475155e+002, 4.094422e+002
3.479977e+002, 4.088282e+002
3.484798e+002, 4.077785e+002
3.489619e+002, 4.065564e+002
3.494440e+002, 4.048133e+002
3.499261e+002, 4.031213e+002
3.504082e+002, 4.029494e+002
3.508904e+002, 4.042903e+002
3.513725e+002, 4.056889e+002
3.518546e+002, 4.056856e+002
3.523367e+002, 4.048280e+002
3.528188e+002, 4.043226e+002
3.533009e+002, 4.048195e+002
3.537831e+002, 4.054126e+002
3.542652e+002, 4.047748e+002
3.547473e+002, 4.032049e+002
3.552294e+002, 4.020836e+002
3.557115e+002, 4.027236e+002
3.561936e+002, 4.040743e+002
3.566758e+002, 4.050526e+002
3.571579e+002, 4.055078e+002
3.576400e+002, 4.055152e+002
3.581221e+002, 4.047271e+002
3.586042e+002, 4.035591e+002
3.590863e+002, 4.028136e+002
3.595685e+002, 4.033073e+002
3.600506e+002, 4.040058e+002
3.605327e+002, 4.042706e+002
3.610148e+002, 4.040181e+002
3.614969e+002, 4.036380e+002
3.619790e+002, 4.028701e+002
3.624612e+002, 4.022172e+002
3.629433e+002, 4.022039e+002
3.634254e+002, 4.034994e+002
3.639075e+002, 4.049181e+002
3.643896e+002, 4.064587e+002
3.648717e+002, 4.080101e+002
3.653539e+002, 4.085323e+002
3.658360e+002, 4.060616e+002
3.663181e+002, 4.036364e+002
3.668002e+002, 4.030559e+002
3.672823e+002, 4.066020e+002
3.677644e+002, 4.093190e+002
3.682466e+002, 4.105775e+002
3.687287e+002, 4.107671e+002
3.692108e+002, 4.110011e+002
3.696929e+002, 4.118591e+002
3.701750e+002, 4.121576e+002
3.706571e+002, 4.113313e+002
3.711393e+002, 4.088228e+002
3.716214e+002, 4.070441e+002
3.721035e+002, 4.061164e+002
3.725856e+002, 4.058235e+002
3.730677e+002, 4.058770e+002
3.735498e+002, 4.061839e+002
3.740320e+002, 4.071239e+002
3.745141e+002, 4.092036e+002
3.749962e+002, 4.122608e+002
3.754783e+002, 4.135679e+002
3.759604e+002, 4.124916e+002
3.764425e+002, 4.110547e+002
3.769247e+002, 4.109704e+002
3.774068e+002, 4.124255e+002
3.778889e+002, 4.138354e+002
3.783710e+002, 4.150218e+002
3.788531e+002, 4.160130e+002
3.793352e+002, 4.167661e+002
3.798174e+002, 4.172324e+002
3.802995e+002, 4.179328e+002
3.807816e+002, 4.193492e+002
3.812637e+002, 4.213415e+002
3.817458e+002, 4.228719e+002
3.822279e+002, 4.238528e+002
3.827101e+002, 4.245804e+002
3.831922e+002, 4.253325e+002
3.836743e+002, 4.261358e+002
3.841564e+002, 4.270913e+002
3.846385e+002, 4.281053e+002
3.851206e+002, 4.293675e+002
3.856028e+002, 4.315661e+002
3.860849e+002, 4.346365e+002
3.865670e+002, 4.373351e+002
3.870491e+002, 4.382695e+002
3.875312e+002, 4.382982e+002
3.880133e+002, 4.388821e+002
3.884955e+002, 4.406282e+002
3.889776e+002, 4.425845e+002
3.894597e+002, 4.437093e+002
3.899418e+002, 4.443190e+002
3.904239e+002, 4.453084e+002
3.909060e+002, 4.474886e+002
3.913882e+002, 4.500182e+002
3.918703e+002, 4.521186e+002
3.923524e+002, 4.535721e+002
3.928345e+002, 4.554238e+002
3.933166e+002, 4.586639e+002
3.937987e+002, 4.624636e+002
3.942809e+002, 4.657316e+002
3.947630e+002, 4.673593e+002
3.952451e+002, 4.691888e+002
3.957272e+002, 4.722184e+002
3.962093e+002, 4.763423e+002
3.966914e+002, 4.797109e+002
3.971736e+002, 4.809751e+002
3.976557e+002, 4.820012e+002
3.981378e+002, 4.839365e+002
3.986199e+002, 4.875213e+002
3.991020e+002, 4.911910e+002
3.995841e+002, 4.947873e+002
4.000663e+002, 4.984391e+002
4.005484e+002, 5.024689e+002
4.010305e+002, 5.070239e+002
4.015126e+002, 5.117800e+002
4.019947e+002, 5.167950e+002
4.024768e+002, 5.222098e+002
4.029590e+002, 5.267795e+002
4.034411e+002, 5.299783e+002
4.039232e+002, 5.329343e+002
4.044053e+002, 5.370319e+002
4.048874e+002, 5.426929e+002
4.053695e+002, 5.480826e+002
4.058517e+002, 5.527943e+002
4.063338e+002, 5.569951e+002
4.068159e+002, 5.614086e+002
4.072980e+002, 5.659150e+002
4.077801e+002, 5.712609e+002
4.082622e+002, 5.778959e+002
4.087444e+002, 5.858181e+002
4.092265e+002, 5.947270e+002
4.097086e+002, 6.046976e+002
4.101907e+002, 6.154963e+002
4.106728e+002, 6.273236e+002
4.111549e+002, 6.399834e+002
4.116371e+002, 6.519501e+002
4.121192e+002, 6.612036e+002
4.126013e+002, 6.694979e+002
4.130834e+002, 6.804596e+002
4.135655e+002, 6.940391e+002
4.140476e+002, 7.086378e+002
4.145298e+002, 7.245343e+002
4.150119e+002, 7.402919e+002
4.154940e+002, 7.536660e+002
4.159761e+002, 7.627050e+002
4.164582e+002, 7.709783e+002
4.169403e+002, 7.818812e+002
4.174225e+002, 7.944576e+002
4.179046e+002, 8.059066e+002
4.183867e+002, 8.140544e+002
4.188688e+002, 8.208544e+002
4.193509e+002, 8.279733e+002
4.198330e+002, 8.362252e+002
4.203152e+002, 8.419281e+002
4.207973e+002, 8.422675e+002
4.212794e+002, 8.398613e+002
4.217615e+002, 8.377458e+002
4.222436e+002, 8.374206e+002
4.227257e+002, 8.366639e+002
4.232079e+002, 8.352355e+002
4.236900e+002, 8.330609e+002
4.241721e+002, 8.294429e+002
4.246542e+002, 8.219427e+002
4.251363e+002, 8.148088e+002
4.256184e+002, 8.101439e+002
4.261006e+002, 8.100720e+002
4.265827e+002, 8.086295e+002
4.270648e+002, 8.049149e+002
4.275469e+002, 8.002552e+002
4.280290e+002, 7.973826e+002
4.285111e+002, 7.976669e+002
4.289933e+002, 7.966052e+002
4.294754e+002, 7.923066e+002
4.299575e+002, 7.848785e+002
4.304396e+002, 7.796219e+002
4.309217e+002, 7.772844e+002
4.314038e+002, 7.748809e+002
4.318860e+002, 7.693519e+002
4.323681e+002, 7.606656e+002
4.328502e+002, 7.527169e+002
4.333323e+002, 7.462972e+002
4.338144e+002, 7.406002e+002
4.342965e+002, 7.343429e+002
4.347787e+002, 7.275005e+002
4.352608e+002, 7.197577e+002
4.357429e+002, 7.103431e+002
4.362250e+002, 6.999894e+002
4.367071e+002, 6.903272e+002
4.371892e+002, 6.814349e+002
4.376714e+002, 6.729162e+002
4.381535e+002, 6.645209e+002
4.386356e+002, 6.563048e+002
4.391177e+002, 6.484750e+002
4.395998e+002, 6.415484e+002
4.400819e+002, 6.345150e+002
4.405641e+002, 6.255675e+002
4.410462e+002, 6.155537e+002
4.415283e+002, 6.074802e+002
4.420104e+002, 6.050935e+002
4.424925e+002, 6.037462e+002
4.429746e+002, 5.998179e+002
4.434568e+002, 5.917289e+002
4.439389e+002, 5.853445e+002
4.444210e+002, 5.839466e+002
4.449031e+002, 5.847623e+002
4.453852e+002, 5.844746e+002
4.458673e+002, 5.817333e+002
4.463495e+002, 5.785847e+002
4.468316e+002, 5.751876e+002
4.473137e+002, 5.715788e+002
4.477958e+002, 5.683041e+002
4.482779e+002, 5.651628e+002
4.487600e+002, 5.625938e+002
4.492422e+002, 5.610825e+002
4.497243e+002, 5.619694e+002
4.502064e+002, 5.606390e+002
4.506885e+002, 5.565684e+002
4.511706e+002, 5.507767e+002
4.516527e+002, 5.448306e+002
4.521349e+002, 5.386300e+002
4.526170e+002, 5.325921e+002
4.530991e+002, 5.267709e+002
4.535812e+002, 5.212090e+002
4.540633e+002, 5.168030e+002
4.545454e+002, 5.136326e+002
4.550276e+002, 5.106224e+002
4.555097e+002, 5.068158e+002
4.559918e+002, 5.023760e+002
4.564739e+002, 4.983875e+002
4.569560e+002, 4.950978e+002
4.574381e+002, 4.918469e+002
4.579203e+002, 4.875358e+002
4.584024e+002, 4.824711e+002
4.588845e+002, 4.775568e+002
4.593666e+002, 4.730543e+002
4.598488e+002, 4.690571e+002
4.603309e+002, 4.658455e+002
4.608130e+002, 4.633979e+002
4.612951e+002, 4.612310e+002
4.617772e+002, 4.593659e+002
4.622593e+002, 4.575192e+002
4.627415e+002, 4.553861e+002
4.632236e+002, 4.525270e+002
4.637057e+002, 4.500531e+002
4.641878e+002, 4.482763e+002
4.646699e+002, 4.472337e+002
4.651520e+002, 4.469734e+002
4.656342e+002, 4.490792e+002
4.661163e+002, 4.505058e+002
4.665984e+002, 4.503612e+002
4.670805e+002, 4.485425e+002
4.675626e+002, 4.454621e+002
4.680447e+002, 4.393850e+002
4.685269e+002, 4.335028e+002
4.690090e+002, 4.300149e+002
4.694911e+002, 4.300565e+002
4.699732e+002, 4.302725e+002
4.704553e+002, 4.306407e+002
4.709374e+002, 4.309537e+002
4.714196e+002, 4.307476e+002
4.719017e+002, 4.299853e+002
4.723838e+002, 4.287903e+002
4.728659e+002, 4.267834e+002
4.733480e+002, 4.241670e+002
4.738301e+002, 4.235259e+002
4.743123e+002, 4.251084e+002
4.747944e+002, 4.269971e+002
4.752765e+002, 4.275497e+002
4.757586e+002, 4.269091e+002
4.762407e+002, 4.254433e+002
4.767228e+002, 4.228133e+002
4.772050e+002, 4.203083e+002
4.776871e+002, 4.202153e+002
4.781692e+002, 4.218296e+002
4.786513e+002, 4.229315e+002
4.791334e+002, 4.217712e+002
4.796155e+002, 4.199046e+002
4.800977e+002, 4.187339e+002
4.805798e+002, 4.183143e+002
4.810619e+002, 4.183222e+002
4.815440e+002, 4.195131e+002
4.820261e+002, 4.205618e+002
4.825082e+002, 4.201566e+002
4.829904e+002, 4.164583e+002
4.834725e+002, 4.136037e+002
4.839546e+002, 4.130993e+002
4.844367e+002, 4.142231e+002
4.849188e+002, 4.154379e+002
4.854009e+002, 4.177302e+002
4.858831e+002, 4.188564e+002
4.863652e+002, 4.176263e+002
4.868473e+002, 4.137823e+002
4.873294e+002, 4.117310e+002
4.878115e+002, 4.122755e+002
4.882936e+002, 4.136747e+002
4.887758e+002, 4.148293e+002
4.892579e+002, 4.158503e+002
4.897400e+002, 4.161048e+002
4.902221e+002, 4.152199e+002
4.907042e+002, 4.139383e+002
4.911863e+002, 4.140843e+002
4.916685e+002, 4.157880e+002
4.921506e+002, 4.166247e+002
4.926327e+002, 4.149401e+002
4.931148e+002, 4.117250e+002
4.935969e+002, 4.105331e+002
4.940790e+002, 4.113369e+002
4.945612e+002, 4.128449e+002
4.950433e+002, 4.146230e+002
4.955254e+002, 4.162509e+002
4.960075e+002, 4.167639e+002
4.964896e+002, 4.156517e+002
4.969717e+002, 4.144521e+002
4.974539e+002, 4.144088e+002
4.979360e+002, 4.152676e+002
4.984181e+002, 4.165728e+002
4.989002e+002, 4.196433e+002
4.993823e+002, 4.217937e+002
4.998644e+002, 4.206674e+002
5.003466e+002, 4.166530e+002
5.008287e+002, 4.139794e+002
5.013108e+002, 4.148093e+002
5.017929e+002, 4.167194e+002
5.022750e+002, 4.184055e+002
5.027571e+002, 4.200257e+002
5.032393e+002, 4.209035e+002
5.037214e+002, 4.209330e+002
5.042035e+002, 4.202840e+002
5.046856e+002, 4.189510e+002
5.051677e+002, 4.158773e+002
5.056498e+002, 4.143975e+002
5.061320e+002, 4.157787e+002
5.066141e+002, 4.192985e+002
5.070962e+002, 4.209209e+002
5.075783e+002, 4.203874e+002
5.080604e+002, 4.190343e+002
5.085425e+002, 4.170803e+002
5.090247e+002, 4.147159e+002
5.095068e+002, 4.141325e+002
5.099889e+002, 4.156242e+002
5.104710e+002, 4.177357e+002
5.109531e+002, 4.188212e+002
5.114352e+002, 4.191729e+002
5.119174e+002, 4.197415e+002
5.123995e+002, 4.212982e+002
5.128816e+002, 4.225476e+002
5.133637e+002, 4.216187e+002
5.138458e+002, 4.191216e+002
5.143279e+002, 4.170252e+002
5.148101e+002, 4.163727e+002
5.152922e+002, 4.165006e+002
5.157743e+002, 4.173321e+002
5.162564e+002, 4.189842e+002
5.167385e+002, 4.197744e+002
5.172206e+002, 4.178405e+002
5.177028e+002, 4.155052e+002
5.181849e+002, 4.146445e+002
5.186670e+002, 4.172665e+002
5.191491e+002, 4.192031e+002
5.196312e+002, 4.198557e+002
5.201133e+002, 4.197233e+002
5.205955e+002, 4.198344e+002
5.210776e+002, 4.200359e+002
5.215597e+002, 4.207909e+002
5.220418e+002, 4.225643e+002
5.225239e+002, 4.252629e+002
5.230060e+002, 4.265383e+002
5.234882e+002, 4.261177e+002
5.239703e+002, 4.252541e+002
5.244524e+002, 4.248911e+002
5.249345e+002, 4.249853e+002
5.254166e+002, 4.248947e+002
5.258987e+002, 4.243554e+002
5.263809e+002, 4.243240e+002
5.268630e+002, 4.270180e+002
5.273451e+002, 4.314166e+002
5.278272e+002, 4.342126e+002
5.283093e+002, 4.327726e+002
5.287914e+002, 4.303100e+002
5.292736e+002, 4.301400e+002
5.297557e+002, 4.319032e+002
5.302378e+002, 4.339799e+002
5.307199e+002, 4.365795e+002
5.312020e+002, 4.384791e+002
5.316841e+002, 4.382117e+002
5.321663e+002, 4.348112e+002
5.326484e+002, 4.331365e+002
5.331305e+002, 4.365345e+002
5.336126e+002, 4.411756e+002
5.340947e+002, 4.434478e+002
5.345768e+002, 4.399536e+002
5.350590e+002, 4.381964e+002
5.355411e+002, 4.392528e+002
5.360232e+002, 4.422805e+002
5.365053e+002, 4.451149e+002
5.369874e+002, 4.478835e+002
5.374695e+002, 4.499877e+002
5.379517e+002, 4.508167e+002
5.384338e+002, 4.505399e+002
5.389159e+002, 4.516128e+002
5.393980e+002, 4.541743e+002
5.398801e+002, 4.571800e+002
5.403622e+002, 4.594952e+002
5.408444e+002, 4.614203e+002
5.413265e+002, 4.644531e+002
5.418086e+002, 4.690692e+002
5.422907e+002, 4.738788e+002
5.427728e+002, 4.771689e+002
5.432549e+002, 4.794885e+002
5.437371e+002, 4.819466e+002
5.442192e+002, 4.853131e+002
5.447013e+002, 4.887346e+002
5.451834e+002, 4.911703e+002
5.456655e+002, 4.930530e+002
5.461476e+002, 4.960281e+002
5.466298e+002, 5.016160e+002
5.471119e+002, 5.077887e+002
5.475940e+002, 5.135089e+002
5.480761e+002, 5.185934e+002
5.485582e+002, 5.236397e+002
5.490403e+002, 5.292664e+002
5.495225e+002, 5.345363e+002
5.500046e+002, 5.384957e+002
5.504867e+002, 5.401926e+002
5.509688e+002, 5.427585e+002
5.514509e+002, 5.470163e+002
5.519330e+002, 5.518588e+002
5.524152e+002, 5.545956e+002
5.528973e+002, 5.549751e+002
5.533794e+002, 5.553185e+002
5.538615e+002, 5.567558e+002
5.543436e+002, 5.587480e+002
5.548257e+002, 5.593419e+002
5.553079e+002, 5.585549e+002
5.557900e+002, 5.572800e+002
5.562721e+002, 5.563477e+002
5.567542e+002, 5.553361e+002
5.572363e+002, 5.533981e+002
5.577184e+002, 5.503130e+002
5.582006e+002, 5.471515e+002
5.586827e+002, 5.450872e+002
5.591648e+002, 5.433060e+002
5.596469e+002, 5.407327e+002
5.601290e+002, 5.362956e+002
5.606111e+002, 5.318369e+002
5.610933e+002, 5.278404e+002
5.615754e+002, 5.242728e+002
5.620575e+002, 5.210971e+002
5.625396e+002, 5.181592e+002
5.630217e+002, 5.157789e+002
5.635038e+002, 5.140472e+002
5.639860e+002, 5.129681e+002
5.644681e+002, 5.123417e+002
5.649502e+002, 5.122252e+002
5.654323e+002, 5.124535e+002
5.659144e+002, 5.127247e+002
5.663965e+002, 5.129641e+002
5.668787e+002, 5.145291e+002
5.673608e+002, 5.176895e+002
5.678429e+002, 5.216036e+002
5.683250e+002, 5.250319e+002
5.688071e+002, 5.281356e+002
5.692892e+002, 5.314890e+002
5.697714e+002, 5.351967e+002
5.702535e+002, 5.392982e+002
5.707356e+002, 5.436224e+002
5.712177e+002, 5.483379e+002
5.716998e+002, 5.537418e+002
5.721819e+002, 5.601119e+002
5.726641e+002, 5.672557e+002
5.731462e+002, 5.750577e+002
5.736283e+002, 5.835722e+002
5.741104e+002, 5.926447e+002
5.745925e+002, 6.035427e+002
5.750746e+002, 6.141550e+002
5.755568e+002, 6.231505e+002
5.760389e+002, 6.289009e+002
5.765210e+002, 6.355895e+002
5.770031e+002, 6.442019e+002
5.774852e+002, 6.531160e+002
5.779673e+002, 6.604175e+002
5.784495e+002, 6.663602e+002
5.789316e+002, 6.698239e+002
5.794137e+002, 6.698314e+002
5.798958e+002, 6.678312e+002
5.803779e+002, 6.678320e+002
5.808600e+002, 6.698243e+002
5.813422e+002, 6.719415e+002
5.818243e+002, 6.725818e+002
5.823064e+002, 6.727837e+002
5.827885e+002, 6.747626e+002
5.832706e+002, 6.785277e+002
5.837527e+002, 6.832355e+002
5.842349e+002, 6.886739e+002
5.847170e+002, 6.945499e+002
5.851991e+002, 7.004326e+002
5.856812e+002, 7.060817e+002
5.861633e+002, 7.124230e+002
5.866454e+002, 7.201571e+002
5.871276e+002, 7.287227e+002
5.876097e+002, 7.373341e+002
5.880918e+002, 7.464464e+002
5.885739e+002, 7.549554e+002
5.890560e+002, 7.624035e+002
5.895381e+002, 7.691984e+002
5.900203e+002, 7.764863e+002
5.905024e+002, 7.842828e+002
5.909845e+002, 7.926759e+002
5.914666e+002, 8.020175e+002
5.919487e+002, 8.121100e+002
5.924308e+002, 8.207903e+002
5.929130e+002, 8.280597e+002
5.933951e+002, 8.340140e+002
5.938772e+002, 8.383820e+002
5.943593e+002, 8.414565e+002
5.948414e+002, 8.431321e+002
5.953235e+002, 8.429213e+002
5.958057e+002, 8.448167e+002
5.962878e+002, 8.528846e+002
5.967699e+002, 8.653746e+002
5.972520e+002, 8.795549e+002
5.977341e+002, 8.947832e+002
5.982162e+002, 9.114011e+002
5.986984e+002, 9.297048e+002
5.991805e+002, 9.493714e+002
5.996626e+002, 9.704761e+002
6.001447e+002, 9.997028e+002
6.006268e+002, 1.023286e+003
6.011089e+002, 1.037896e+003
6.015911e+002, 1.043860e+003
6.020732e+002, 1.043256e+003
6.025553e+002, 1.037469e+003
6.030374e+002, 1.022541e+003
6.035195e+002, 9.943878e+002
6.040016e+002, 9.526383e+002
6.044838e+002, 9.114697e+002
6.049659e+002, 8.710521e+002
6.054480e+002, 8.321442e+002
6.059301e+002, 7.952772e+002
6.064122e+002, 7.606835e+002
6.068943e+002, 7.286135e+002
6.073765e+002, 6.992307e+002
6.078586e+002, 6.722307e+002
6.083407e+002, 6.478979e+002
6.088228e+002, 6.259041e+002
6.093049e+002, 6.062062e+002
6.097870e+002, 5.886962e+002
6.102692e+002, 5.732343e+002
6.107513e+002, 5.600585e+002
6.112334e+002, 5.489136e+002
6.117155e+002, 5.389341e+002
6.121976e+002, 5.300277e+002
6.126797e+002, 5.220803e+002
6.131619e+002, 5.149940e+002
6.136440e+002, 5.086987e+002
6.141261e+002, 5.037534e+002
6.146082e+002, 5.008133e+002
6.150903e+002, 4.978985e+002
6.155724e+002, 4.932769e+002
6.160546e+002, 4.869194e+002
6.165367e+002, 4.818139e+002
6.170188e+002, 4.782793e+002
6.175009e+002, 4.753389e+002
6.179830e+002, 4.716531e+002
6.184651e+002, 4.676291e+002
6.189473e+002, 4.645423e+002
6.194294e+002, 4.630468e+002
6.199115e+002, 4.619119e+002
6.203936e+002, 4.597637e+002
6.208757e+002, 4.571536e+002
6.213578e+002, 4.551772e+002
6.218400e+002, 4.553758e+002
6.223221e+002, 4.552197e+002
6.228042e+002, 4.532556e+002
6.232863e+002, 4.497929e+002
6.237684e+002, 4.470480e+002
6.242505e+002, 4.458412e+002
6.247327e+002, 4.446884e+002
6.252148e+002, 4.427618e+002
6.256969e+002, 4.398313e+002
6.261790e+002, 4.392050e+002
6.266611e+002, 4.417523e+002
6.271432e+002, 4.443518e+002
6.276254e+002, 4.440643e+002
6.281075e+002, 4.411967e+002
6.285896e+002, 4.393456e+002
6.290717e+002, 4.389283e+002
6.295538e+002, 4.390700e+002
6.300359e+002, 4.391845e+002
6.305181e+002, 4.390959e+002
6.310002e+002, 4.383742e+002
6.314823e+002, 4.365836e+002
6.319644e+002, 4.346710e+002
6.324465e+002, 4.329844e+002
6.329286e+002, 4.316815e+002
6.334108e+002, 4.310903e+002
6.338929e+002, 4.321848e+002
6.343750e+002, 4.330806e+002
6.348571e+002, 4.329813e+002
6.353392e+002, 4.320429e+002
6.358214e+002, 4.315497e+002
6.363035e+002, 4.316666e+002
6.367856e+002, 4.319281e+002
6.372677e+002, 4.322378e+002
6.377498e+002, 4.325825e+002
6.382319e+002, 4.322863e+002
6.387141e+002, 4.311826e+002
6.391962e+002, 4.302753e+002
6.396783e+002, 4.309561e+002
6.401604e+002, 4.325586e+002
6.406425e+002, 4.325996e+002
6.411246e+002, 4.306667e+002
6.416068e+002, 4.283719e+002
6.420889e+002, 4.270287e+002
6.425710e+002, 4.263300e+002
6.430531e+002, 4.258936e+002
6.435352e+002, 4.257473e+002
6.440173e+002, 4.256359e+002
6.444995e+002, 4.253591e+002
6.449816e+002, 4.250704e+002
6.454637e+002, 4.250300e+002
6.459458e+002, 4.254735e+002
6.464279e+002, 4.259409e+002
6.469100e+002, 4.265461e+002
6.473922e+002, 4.271048e+002
6.478743e+002, 4.266198e+002
6.483564e+002, 4.245591e+002
6.488385e+002, 4.232905e+002
6.493206e+002, 4.243576e+002
6.498027e+002, 4.270904e+002
6.502849e+002, 4.280367e+002
6.507670e+002, 4.272350e+002
6.512491e+002, 4.259225e+002
6.517312e+002, 4.246158e+002
6.522133e+002, 4.235674e+002
6.526954e+002, 4.234656e+002
6.531776e+002, 4.244992e+002
6.536597e+002, 4.248944e+002
6.541418e+002, 4.226729e+002
6.546239e+002, 4.198592e+002
6.551060e+002, 4.182907e+002
6.555881e+002, 4.188095e+002
6.560703e+002, 4.196754e+002
6.565524e+002, 4.210312e+002
6.570345e+002, 4.224326e+002
6.575166e+002, 4.233656e+002
6.579987e+002, 4.238051e+002
6.584808e+002, 4.237375e+002
6.589630e+002, 4.228661e+002
6.594451e+002, 4.217769e+002
6.599272e+002, 4.219804e+002
6.604093e+002, 4.234261e+002
6.608914e+002, 4.247188e+002
6.613735e+002, 4.254171e+002
6.618557e+002, 4.255610e+002
6.623378e+002, 4.247778e+002
6.628199e+002, 4.233647e+002
6.633020e+002, 4.225882e+002
6.637841e+002, 4.236352e+002
6.642662e+002, 4.252318e+002
6.647484e+002, 4.266970e+002
6.652305e+002, 4.279677e+002
6.657126e+002, 4.287358e+002
6.661947e+002, 4.291846e+002
6.666768e+002, 4.288472e+002
6.671589e+002, 4.270872e+002
6.676411e+002, 4.229124e+002
6.681232e+002, 4.214706e+002
6.686053e+002, 4.237231e+002
6.690874e+002, 4.270111e+002
6.695695e+002, 4.289399e+002
6.700516e+002, 4.295378e+002
6.705338e+002, 4.298845e+002
6.710159e+002, 4.300888e+002
6.714980e+002, 4.300575e+002
6.719801e+002, 4.293952e+002
6.724622e+002, 4.284260e+002
6.729443e+002, 4.279579e+002
6.734265e+002, 4.285836e+002
6.739086e+002, 4.292066e+002
6.743907e+002, 4.292182e+002
6.748728e+002, 4.287171e+002
6.753549e+002, 4.278837e+002
6.758370e+002, 4.264662e+002
6.763192e+002, 4.250828e+002
6.768013e+002, 4.234751e+002
6.772834e+002, 4.220035e+002
6.777655e+002, 4.224474e+002
6.782476e+002, 4.262202e+002
6.787297e+002, 4.284974e+002
6.792119e+002, 4.265995e+002
6.796940e+002, 4.215777e+002
6.801761e+002, 4.201567e+002
6.806582e+002, 4.224411e+002
6.811403e+002, 4.249322e+002
6.816224e+002, 4.244642e+002
6.821046e+002, 4.228345e+002
6.825867e+002, 4.233662e+002
6.830688e+002, 4.262242e+002
6.835509e+002, 4.293213e+002
6.840330e+002, 4.326444e+002
6.845151e+002, 4.348002e+002
6.849973e+002, 4.342095e+002
6.854794e+002, 4.292438e+002
6.859615e+002, 4.257430e+002
6.864436e+002, 4.256404e+002
6.869257e+002, 4.267231e+002
6.874078e+002, 4.273436e+002
6.878900e+002, 4.274883e+002
6.883721e+002, 4.271439e+002
6.888542e+002, 4.260787e+002
6.893363e+002, 4.249688e+002
6.898184e+002, 4.251208e+002
6.903005e+002, 4.263541e+002
6.907827e+002, 4.269447e+002
6.912648e+002, 4.259966e+002
6.917469e+002, 4.250602e+002
6.922290e+002, 4.269493e+002
6.927111e+002, 4.303784e+002
6.931932e+002, 4.324058e+002
6.936754e+002, 4.307725e+002
6.941575e+002, 4.283799e+002
6.946396e+002, 4.262184e+002
6.951217e+002, 4.243817e+002
6.956038e+002, 4.230986e+002
6.960859e+002, 4.225247e+002
6.965681e+002, 4.224315e+002
6.970502e+002, 4.229624e+002
6.975323e+002, 4.240178e+002
6.980144e+002, 4.245085e+002
6.984965e+002, 4.242922e+002
6.989786e+002, 4.241705e+002
6.994608e+002, 4.247329e+002
6.999429e+002, 4.257947e+002
7.004250e+002, 4.266933e+002
7.009071e+002, 4.274290e+002
7.013892e+002, 4.277639e+002
7.018713e+002, 4.272438e+002
7.023535e+002, 4.263803e+002
7.028356e+002, 4.255453e+002
7.033177e+002, 4.246983e+002
7.037998e+002, 4.246085e+002
7.042819e+002, 4.261645e+002
7.047640e+002, 4.282021e+002
7.052462e+002, 4.298866e+002
7.057283e+002, 4.314654e+002
7.062104e+002, 4.318647e+002
7.066925e+002, 4.302929e+002
7.071746e+002, 4.285071e+002
7.076567e+002, 4.288448e+002
7.081389e+002, 4.314183e+002
7.086210e+002, 4.327185e+002
7.091031e+002, 4.319144e+002
7.095852e+002, 4.307408e+002
7.100673e+002, 4.319778e+002
7.105494e+002, 4.347017e+002
7.110316e+002, 4.366801e+002
7.115137e+002, 4.370469e+002
7.119958e+002, 4.366224e+002
7.124779e+002, 4.353964e+002
7.129600e+002, 4.338475e+002
7.134421e+002, 4.328823e+002
7.139243e+002, 4.331693e+002
7.144064e+002, 4.335636e+002
7.148885e+002, 4.338127e+002
7.153706e+002, 4.340005e+002
7.158527e+002, 4.344886e+002
7.163348e+002, 4.355255e+002
7.168170e+002, 4.359582e+002
7.172991e+002, 4.351003e+002
7.177812e+002, 4.334800e+002
7.182633e+002, 4.326258e+002
7.187454e+002, 4.325391e+002
7.192275e+002, 4.333356e+002
7.197097e+002, 4.360461e+002
7.201918e+002, 4.390483e+002
7.206739e+002, 4.403752e+002
7.211560e+002, 4.401519e+002
7.216381e+002, 4.400043e+002
7.221202e+002, 4.411486e+002
7.226024e+002, 4.421575e+002
7.230845e+002, 4.420791e+002
7.235666e+002, 4.406842e+002
7.240487e+002, 4.398397e+002
7.245308e+002, 4.398500e+002
7.250129e+002, 4.399431e+002
7.254951e+002, 4.395126e+002
7.259772e+002, 4.385176e+002
7.264593e+002, 4.383448e+002
7.269414e+002, 4.390895e+002
7.274235e+002, 4.400040e+002
7.279056e+002, 4.405546e+002
7.283878e+002, 4.407411e+002
7.288699e+002, 4.404521e+002
7.293520e+002, 4.395935e+002
7.298341e+002, 4.387967e+002
7.303162e+002, 4.383880e+002
7.307983e+002, 4.382856e+002
7.312805e+002, 4.384202e+002
7.317626e+002, 4.389215e+002
7.322447e+002, 4.394032e+002
7.327268e+002, 4.398441e+002
7.332089e+002, 4.402414e+002
7.336910e+002, 4.407121e+002
7.341732e+002, 4.414204e+002
7.346553e+002, 4.411893e+002
7.351374e+002, 4.396077e+002
7.356195e+002, 4.376764e+002
7.361016e+002, 4.366258e+002
7.365837e+002, 4.364605e+002
7.370659e+002, 4.374672e+002
7.375480e+002, 4.407250e+002
7.380301e+002, 4.432883e+002
7.385122e+002, 4.413508e+002
7.389943e+002, 4.371784e+002
7.394764e+002, 4.346668e+002
7.399586e+002, 4.371273e+002
7.404407e+002, 4.389756e+002
7.409228e+002, 4.379213e+002
7.414049e+002, 4.354944e+002
7.418870e+002, 4.353338e+002
7.423691e+002, 4.385218e+002
7.428513e+002, 4.406872e+002
7.433334e+002, 4.403632e+002
7.438155e+002, 4.385749e+002
7.442976e+002, 4.380872e+002
7.447797e+002, 4.387641e+002
7.452618e+002, 4.394033e+002
7.457440e+002, 4.392639e+002
7.462261e+002, 4.388942e+002
7.467082e+002, 4.387820e+002
7.471903e+002, 4.389295e+002
7.476724e+002, 4.393464e+002
7.481545e+002, 4.401057e+002
7.486367e+002, 4.410593e+002
7.491188e+002, 4.424357e+002
7.496009e+002, 4.441354e+002
7.500830e+002, 4.449342e+002
7.505651e+002, 4.447675e+002
7.510472e+002, 4.438136e+002
7.515294e+002, 4.417343e+002
7.520115e+002, 4.388383e+002
7.524936e+002, 4.373862e+002
7.529757e+002, 4.373645e+002
7.534578e+002, 4.381581e+002
7.539399e+002, 4.399050e+002
7.544221e+002, 4.419161e+002
7.549042e+002, 4.433884e+002
7.553863e+002, 4.442735e+002
7.558684e+002, 4.443636e+002
7.563505e+002, 4.424980e+002
7.568326e+002, 4.406504e+002
7.573148e+002, 4.400980e+002
7.577969e+002, 4.411576e+002
7.582790e+002, 4.422000e+002
7.587611e+002, 4.432056e+002
7.592432e+002, 4.442262e+002
7.597253e+002, 4.454024e+002
7.602075e+002, 4.467416e+002
7.606896e+002, 4.475006e+002
7.611717e+002, 4.476474e+002
7.616538e+002, 4.475424e+002
7.621359e+002, 4.476848e+002
7.626180e+002, 4.477312e+002
7.631002e+002, 4.468965e+002
7.635823e+002, 4.449734e+002
7.640644e+002, 4.434741e+002
7.645465e+002, 4.433852e+002
7.650286e+002, 4.439280e+002
7.655107e+002, 4.444832e+002
7.659929e+002, 4.449554e+002
7.664750e+002, 4.455537e+002
7.669571e+002, 4.464367e+002
7.674392e+002, 4.472487e+002
7.679213e+002, 4.475646e+002
7.684034e+002, 4.473707e+002
7.688856e+002, 4.475497e+002
7.693677e+002, 4.482338e+002
7.698498e+002, 4.488914e+002
7.703319e+002, 4.486727e+002
7.708140e+002, 4.481049e+002
7.712961e+002, 4.483279e+002
7.717783e+002, 4.499804e+002
7.722604e+002, 4.510062e+002
7.727425e+002, 4.492629e+002
7.732246e+002, 4.468801e+002
7.737067e+002, 4.461114e+002
7.741888e+002, 4.495719e+002
7.746710e+002, 4.506358e+002
7.751531e+002, 4.480172e+002
7.756352e+002, 4.445098e+002
7.761173e+002, 4.437410e+002
7.765994e+002, 4.457192e+002
7.770815e+002, 4.475093e+002
7.775637e+002, 4.487746e+002
7.780458e+002, 4.494290e+002
7.785279e+002, 4.488908e+002
7.790100e+002, 4.477697e+002
7.794921e+002, 4.471363e+002
7.799742e+002, 4.472542e+002
7.804564e+002, 4.480048e+002
7.809385e+002, 4.503771e+002
7.814206e+002, 4.529584e+002
7.819027e+002, 4.536707e+002
7.823848e+002, 4.505647e+002
7.828669e+002, 4.491380e+002
7.833491e+002, 4.505012e+002
7.838312e+002, 4.528559e+002
7.843133e+002, 4.530616e+002
7.847954e+002, 4.512520e+002
7.852775e+002, 4.499701e+002
7.857596e+002, 4.497609e+002
7.862418e+002, 4.503880e+002
7.867239e+002, 4.525102e+002
7.872060e+002, 4.550899e+002
7.876881e+002, 4.562315e+002
7.881702e+002, 4.539693e+002
7.886523e+002, 4.519361e+002
7.891345e+002, 4.516753e+002
7.896166e+002, 4.523774e+002
7.900987e+002, 4.526286e+002
7.905808e+002, 4.522394e+002
7.910629e+002, 4.516863e+002
7.915450e+002, 4.507446e+002
7.920272e+002, 4.500578e+002
7.925093e+002, 4.513872e+002
7.929914e+002, 4.544072e+002
7.934735e+002, 4.563834e+002
7.939556e+002, 4.563558e+002
7.944377e+002, 4.553605e+002
7.949199e+002, 4.538835e+002
7.954020e+002, 4.523588e+002
7.958841e+002, 4.516215e+002
7.963662e+002, 4.519991e+002
7.968483e+002, 4.531009e+002
7.973304e+002, 4.557034e+002
7.978126e+002, 4.586934e+002
7.982947e+002, 4.600993e+002
7.987768e+002, 4.595540e+002
7.992589e+002, 4.583164e+002
7.997410e+002, 4.561013e+002
8.002231e+002, 4.541324e+002
8.007053e+002, 4.555431e+002
8.011874e+002, 4.594232e+002
8.016695e+002, 4.619710e+002
8.021516e+002, 4.614843e+002
8.026337e+002, 4.598806e+002
8.031158e+002, 4.579811e+002
8.035980e+002, 4.563037e+002
8.040801e+002, 4.556825e+002
8.045622e+002, 4.579116e+002
8.050443e+002, 4.592879e+002
8.055264e+002, 4.589071e+002
8.060085e+002, 4.575459e+002
8.064907e+002, 4.565112e+002
8.069728e+002, 4.557801e+002
8.074549e+002, 4.555640e+002
8.079370e+002, 4.561061e+002
8.084191e+002, 4.567453e+002
8.089012e+002, 4.559105e+002
8.093834e+002, 4.542651e+002
8.098655e+002, 4.536642e+002
8.103476e+002, 4.553834e+002
8.108297e+002, 4.574482e+002
8.113118e+002, 4.586837e+002
8.117939e+002, 4.594822e+002
8.122761e+002, 4.605115e+002
8.127582e+002, 4.624027e+002
8.132403e+002, 4.637519e+002
8.137224e+002, 4.645399e+002
8.142045e+002, 4.646249e+002
8.146866e+002, 4.632073e+002
8.151688e+002, 4.603678e+002
8.156509e+002, 4.589297e+002
8.161330e+002, 4.600406e+002
8.166151e+002, 4.617241e+002
8.170972e+002, 4.610530e+002
8.175793e+002, 4.592098e+002
8.180615e+002, 4.584124e+002
8.185436e+002, 4.605547e+002
8.190257e+002, 4.623305e+002
8.195078e+002, 4.618600e+002
8.199899e+002, 4.606348e+002
8.204720e+002, 4.611333e+002
8.209542e+002, 4.646228e+002
8.214363e+002, 4.663163e+002
8.219184e+002, 4.652023e+002
8.224005e+002, 4.628104e+002
8.228826e+002, 4.611781e+002
8.233647e+002, 4.603148e+002
8.238469e+002, 4.605395e+002
8.243290e+002, 4.623920e+002
8.248111e+002, 4.640674e+002
8.252932e+002, 4.637857e+002
8.257753e+002, 4.624653e+002
8.262574e+002, 4.613660e+002
8.267396e+002, 4.607603e+002
8.272217e+002, 4.604516e+002
8.277038e+002, 4.602971e+002
8.281859e+002, 4.605094e+002
8.286681e+002, 4.617208e+002
8.291502e+002, 4.642123e+002
8.296323e+002, 4.649133e+002
8.301144e+002, 4.630729e+002
8.305966e+002, 4.605848e+002
8.310787e+002, 4.596568e+002
8.315608e+002, 4.597588e+002
8.320429e+002, 4.597422e+002
8.325250e+002, 4.590655e+002
8.330071e+002, 4.590810e+002
8.334893e+002, 4.616111e+002
8.339714e+002, 4.645610e+002
8.344535e+002, 4.656107e+002
8.349356e+002, 4.631550e+002
8.354177e+002, 4.621286e+002
8.358998e+002, 4.628009e+002
8.363820e+002, 4.644637e+002
8.368641e+002, 4.671862e+002
8.373462e+002, 4.705534e+002
8.378283e+002, 4.713020e+002
8.383104e+002, 4.688037e+002
8.387925e+002, 4.662161e+002
8.392747e+002, 4.669988e+002
8.397568e+002, 4.688008e+002
8.402389e+002, 4.686414e+002
8.407210e+002, 4.649818e+002
8.412031e+002, 4.631531e+002
8.416852e+002, 4.665107e+002
8.421674e+002, 4.699247e+002
8.426495e+002, 4.695702e+002
8.431316e+002, 4.643991e+002
8.436137e+002, 4.629872e+002
8.440958e+002, 4.658565e+002
8.445779e+002, 4.692889e+002
8.450601e+002, 4.699652e+002
8.455422e+002, 4.688871e+002
8.460243e+002, 4.675408e+002
8.465064e+002, 4.660643e+002
8.469885e+002, 4.653940e+002
8.474706e+002, 4.672899e+002
8.479528e+002, 4.691641e+002
8.484349e+002, 4.690866e+002
8.489170e+002, 4.667034e+002
8.493991e+002, 4.649553e+002
8.498812e+002, 4.637460e+002
8.503633e+002, 4.633880e+002
8.508455e+002, 4.643687e+002
8.513276e+002, 4.664218e+002
8.518097e+002, 4.682260e+002
8.522918e+002, 4.697721e+002
8.527739e+002, 4.708419e+002
8.532560e+002, 4.705999e+002
8.537382e+002, 4.703494e+002
8.542203e+002, 4.718396e+002
8.547024e+002, 4.748368e+002
8.551845e+002, 4.758810e+002
8.556666e+002, 4.720875e+002
8.561487e+002, 4.689205e+002
8.566309e+002, 4.683521e+002
8.571130e+002, 4.698553e+002
8.575951e+002, 4.702153e+002
8.580772e+002, 4.693923e+002
8.585593e+002, 4.692613e+002
8.590414e+002, 4.717691e+002
8.595236e+002, 4.747629e+002
8.600057e+002, 4.745881e+002
8.604878e+002, 4.721820e+002
8.609699e+002, 4.704930e+002
8.614520e+002, 4.711824e+002
8.619341e+002, 4.722880e+002
8.624163e+002, 4.733836e+002
8.628984e+002, 4.743572e+002
8.633805e+002, 4.748461e+002
8.638626e+002, 4.747006e+002
8.643447e+002, 4.745995e+002
8.648268e+002, 4.746027e+002
8.653090e+002, 4.749088e+002
8.657911e+002, 4.764179e+002
8.662732e+002, 4.785761e+002
8.667553e+002, 4.796644e+002
8.672374e+002, 4.782648e+002
8.677195e+002, 4.768239e+002
8.682017e+002, 4.766194e+002
8.686838e+002, 4.773012e+002
8.691659e+002, 4.784086e+002
8.696480e+002, 4.803671e+002
8.701301e+002, 4.817496e+002
8.706122e+002, 4.822752e+002
8.710944e+002, 4.824412e+002
8.715765e+002, 4.830870e+002
8.720586e+002, 4.840594e+002
8.725407e+002, 4.844015e+002
8.730228e+002, 4.838704e+002
8.735049e+002, 4.830503e+002
8.739871e+002, 4.819977e+002
8.744692e+002, 4.811642e+002
8.749513e+002, 4.810960e+002
8.754334e+002, 4.821923e+002
8.759155e+002, 4.833387e+002
8.763976e+002, 4.842033e+002
8.768798e+002, 4.853358e+002
8.773619e+002, 4.876463e+002
8.778440e+002, 4.912197e+002
8.783261e+002, 4.922853e+002
8.788082e+002, 4.905286e+002
8.792903e+002, 4.886411e+002
8.797725e+002, 4.886865e+002
8.802546e+002, 4.900706e+002
8.807367e+002, 4.924741e+002
8.812188e+002, 4.958699e+002
8.817009e+002, 4.986065e+002
8.821830e+002, 4.999915e+002
8.826652e+002, 5.006506e+002
8.831473e+002, 5.007035e+002
8.836294e+002, 5.001862e+002
8.841115e+002, 5.001976e+002
8.845936e+002, 5.007806e+002
8.850757e+002, 5.015868e+002
8.855579e+002, 5.022917e+002
8.860400e+002, 5.031431e+002
8.865221e+002, 5.051091e+002
8.870042e+002, 5.077650e+002
8.874863e+002, 5.094235e+002
8.879684e+002, 5.073463e+002
8.884506e+002, 5.060770e+002
8.889327e+002, 5.087642e+002
8.894148e+002, 5.138718e+002
8.898969e+002, 5.160068e+002
8.903790e+002, 5.140384e+002
8.908611e+002, 5.130988e+002
8.913433e+002, 5.148290e+002
8.918254e+002, 5.178812e+002
8.923075e+002, 5.200495e+002
8.927896e+002, 5.214540e+002
8.932717e+002, 5.222877e+002
8.937538e+002, 5.215914e+002
8.942360e+002, 5.220322e+002
8.947181e+002, 5.263550e+002
8.952002e+002, 5.322333e+002
8.956823e+002, 5.362080e+002
8.961644e+002, 5.374691e+002
8.966465e+002, 5.380912e+002
8.971287e+002, 5.376432e+002
8.976108e+002, 5.377118e+002
8.980929e+002, 5.413154e+002
8.985750e+002, 5.472440e+002
8.990571e+002, 5.504425e+002
8.995392e+002, 5.498488e+002
9.000214e+002, 5.493920e+002
9.005035e+002, 5.520811e+002
9.009856e+002, 5.561582e+002
9.014677e+002, 5.604982e+002
9.019498e+002, 5.654510e+002
9.024319e+002, 5.678998e+002
9.029141e+002, 5.661126e+002
9.033962e+002, 5.649127e+002
9.038783e+002, 5.677006e+002
9.043604e+002, 5.739706e+002
9.048425e+002, 5.801951e+002
9.053246e+002, 5.864120e+002
9.058068e+002, 5.920223e+002
9.062889e+002, 5.962811e+002
9.067710e+002, 6.001422e+002
9.072531e+002, 6.040077e+002
9.077352e+002, 6.080426e+002
9.082173e+002, 6.133610e+002
9.086995e+002, 6.208419e+002
9.091816e+002, 6.284428e+002
9.096637e+002, 6.354319e+002
9.101458e+002, 6.421404e+002
9.106279e+002, 6.489384e+002
9.111100e+002, 6.560258e+002
9.115922e+002, 6.653889e+002
9.120743e+002, 6.794153e+002
9.125564e+002, 6.937590e+002
9.130385e+002, 7.032607e+002
9.135206e+002, 7.104425e+002
9.140027e+002, 7.198002e+002
9.144849e+002, 7.312722e+002
9.149670e+002, 7.470787e+002
9.154491e+002, 7.690202e+002
9.159312e+002, 7.933375e+002
9.164133e+002, 8.149538e+002
9.168954e+002, 8.341634e+002
9.173776e+002, 8.541406e+002
9.178597e+002, 8.750375e+002
9.183418e+002, 8.994064e+002
9.188239e+002, 9.304998e+002
9.193060e+002, 9.658840e+002
9.197881e+002, 1.002711e+003
9.202703e+002, 1.040238e+003
9.207524e+002, 1.081613e+003
9.212345e+002, 1.126959e+003
9.217166e+002, 1.176181e+003
9.221987e+002, 1.229164e+003
9.226808e+002, 1.285922e+003
9.231630e+002, 1.346124e+003
9.236451e+002, 1.410068e+003
9.241272e+002, 1.480007e+003
9.246093e+002, 1.557966e+003
9.250914e+002, 1.642215e+003
9.255735e+002, 1.731677e+003
9.260557e+002, 1.825459e+003
9.265378e+002, 1.923245e+003
9.270199e+002, 2.024167e+003
9.275020e+002, 2.131040e+003
9.279841e+002, 2.249025e+003
9.284662e+002, 2.371656e+003
9.289484e+002, 2.485381e+003
9.294305e+002, 2.590434e+003
9.299126e+002, 2.683274e+003
9.303947e+002, 2.762934e+003
9.308768e+002, 2.827511e+003
9.313589e+002, 2.879017e+003
9.318411e+002, 2.911728e+003
9.323232e+002, 2.916149e+003
9.328053e+002, 2.881366e+003
9.332874e+002, 2.830612e+003
9.337695e+002, 2.764188e+003
9.342516e+002, 2.686772e+003
9.347338e+002, 2.600051e+003
9.352159e+002, 2.503972e+003
9.356980e+002, 2.415608e+003
9.361801e+002, 2.335755e+003
9.366622e+002, 2.267482e+003
9.371443e+002, 2.213083e+003
9.376265e+002, 2.171625e+003
9.381086e+002, 2.141202e+003
9.385907e+002, 2.121289e+003
9.390728e+002, 2.122449e+003
9.395549e+002, 2.148021e+003
9.400370e+002, 2.190790e+003
9.405192e+002, 2.247485e+003
9.410013e+002, 2.319290e+003
9.414834e+002, 2.410155e+003
9.419655e+002, 2.521060e+003
9.424476e+002, 2.654797e+003
9.429297e+002, 2.819711e+003
9.434119e+002, 3.000704e+003
9.438940e+002, 3.196415e+003
9.443761e+002, 3.396800e+003
9.448582e+002, 3.581314e+003
9.453403e+002, 3.762849e+003
9.458224e+002, 3.903917e+003
9.463046e+002, 4.008850e+003
9.467867e+002, 4.060567e+003
9.472688e+002, 4.028852e+003
9.477509e+002, 3.919758e+003
9.482330e+002, 3.761046e+003
9.487151e+002, 3.553023e+003
9.491973e+002, 3.326423e+003
9.496794e+002, 3.087691e+003
9.501615e+002, 2.854104e+003
9.506436e+002, 2.639183e+003
9.511257e+002, 2.447488e+003
9.516078e+002, 2.276937e+003
9.520900e+002, 2.128251e+003
9.525721e+002, 1.998956e+003
9.530542e+002, 1.889395e+003
9.535363e+002, 1.798002e+003
9.540184e+002, 1.719915e+003
9.545005e+002, 1.654971e+003
9.549827e+002, 1.597916e+003
9.554648e+002, 1.547250e+003
9.559469e+002, 1.502377e+003
9.564290e+002, 1.464368e+003
9.569111e+002, 1.431915e+003
9.573932e+002, 1.401269e+003
9.578754e+002, 1.371677e+003
9.583575e+002, 1.344456e+003
9.588396e+002, 1.319683e+003
9.593217e+002, 1.298106e+003
9.598038e+002, 1.283088e+003
9.602859e+002, 1.272424e+003
9.607681e+002, 1.260463e+003
9.612502e+002, 1.245618e+003
9.617323e+002, 1.230316e+003
9.622144e+002, 1.214499e+003
9.626965e+002, 1.199837e+003
9.631786e+002, 1.188558e+003
9.636608e+002, 1.182107e+003
9.641429e+002, 1.170614e+003
9.646250e+002, 1.153517e+003
9.651071e+002, 1.134519e+003
9.655892e+002, 1.115539e+003
9.660714e+002, 1.096853e+003
9.665535e+002, 1.078029e+003
9.670356e+002, 1.059327e+003
9.675177e+002, 1.041206e+003
9.679998e+002, 1.026436e+003
9.684819e+002, 1.009425e+003
9.689641e+002, 9.862866e+002
9.694462e+002, 9.597948e+002
9.699283e+002, 9.363146e+002
9.704104e+002, 9.160823e+002
9.708925e+002, 8.961248e+002
9.713746e+002, 8.752526e+002
9.718568e+002, 8.553882e+002
9.723389e+002, 8.385926e+002
9.728210e+002, 8.241840e+002
9.733031e+002, 8.110654e+002
9.737852e+002, 7.990643e+002
9.742673e+002, 7.882060e+002
9.747495e+002, 7.781537e+002
9.752316e+002, 7.694068e+002
9.757137e+002, 7.622144e+002
9.761958e+002, 7.565189e+002
9.766779e+002, 7.531881e+002
9.771600e+002, 7.521948e+002
9.776422e+002, 7.515697e+002
9.781243e+002, 7.506588e+002
9.786064e+002, 7.488940e+002
9.790885e+002, 7.447003e+002
9.795706e+002, 7.389263e+002
9.800527e+002, 7.355363e+002
9.805349e+002, 7.367289e+002
9.810170e+002, 7.375785e+002
9.814991e+002, 7.369843e+002
9.819812e+002, 7.357499e+002
9.824633e+002, 7.359188e+002
9.829454e+002, 7.369409e+002
9.834276e+002, 7.363856e+002
9.839097e+002, 7.333224e+002
9.843918e+002, 7.296799e+002
9.848739e+002, 7.262100e+002
9.853560e+002, 7.231171e+002
9.858381e+002, 7.206607e+002
9.863203e+002, 7.189033e+002
9.868024e+002, 7.177056e+002
9.872845e+002, 7.175771e+002
9.877666e+002, 7.162723e+002
9.882487e+002, 7.109942e+002
9.887308e+002, 7.038004e+002
9.892130e+002, 6.987659e+002
9.896951e+002, 6.959628e+002
9.901772e+002, 6.951761e+002
9.906593e+002, 6.989753e+002
9.911414e+002, 7.018178e+002
9.916235e+002, 7.010962e+002
9.921057e+002, 6.981509e+002
9.925878e+002, 6.953934e+002
9.930699e+002, 6.927596e+002
9.935520e+002, 6.907765e+002
9.940341e+002, 6.893723e+002
9.945162e+002, 6.892266e+002
9.949984e+002, 6.917931e+002
9.954805e+002, 6.958188e+002
9.959626e+002, 6.996713e+002
9.964447e+002, 7.030630e+002
9.969268e+002, 7.063270e+002
9.974089e+002, 7.097883e+002
9.978911e+002, 7.127261e+002
9.983732e+002, 7.144469e+002
9.988553e+002, 7.151962e+002
9.993374e+002, 7.167114e+002
9.998195e+002, 7.190284e+002
1.000302e+003, 7.224573e+002
1.000784e+003, 7.279838e+002
1.001266e+003, 7.339493e+002
1.001748e+003, 7.390365e+002
1.002230e+003, 7.437661e+002
1.002712e+003, 7.494421e+002
1.003194e+003, 7.561193e+002
1.003676e+003, 7.636667e+002
1.004159e+003, 7.721871e+002
1.004641e+003, 7.814266e+002
1.005123e+003, 7.907161e+002
1.005605e+003, 8.006505e+002
1.006087e+003, 8.129108e+002
1.006569e+003, 8.280711e+002
1.007051e+003, 8.437980e+002
1.007533e+003, 8.585986e+002
1.008016e+003, 8.743749e+002
1.008498e+003, 8.924481e+002
1.008980e+003, 9.126415e+002
1.009462e+003, 9.331500e+002
1.009944e+003, 9.540776e+002
1.010426e+003, 9.763915e+002
1.010908e+003, 1.000682e+003
1.011390e+003, 1.026066e+003
1.011872e+003, 1.051130e+003
1.012355e+003, 1.076708e+003
1.012837e+003, 1.104541e+003
1.013319e+003, 1.137870e+003
1.013801e+003, 1.170053e+003
1.014283e+003, 1.200383e+003
1.014765e+003, 1.229778e+003
1.015247e+003, 1.259400e+003
1.015729e+003, 1.289441e+003
1.016211e+003, 1.320868e+003
1.016694e+003, 1.353721e+003
1.017176e+003, 1.382179e+003
1.017658e+003, 1.403397e+003
1.018140e+003, 1.417756e+003
1.018622e+003, 1.426227e+003
1.019104e+003, 1.428325e+003
1.019586e+003, 1.420000e+003
1.020068e+003, 1.399404e+003
1.020551e+003, 1.376254e+003
1.021033e+003, 1.354386e+003
1.021515e+003, 1.329967e+003
1.021997e+003, 1.295585e+003
1.022479e+003, 1.254599e+003
1.022961e+003, 1.213466e+003
1.023443e+003, 1.173600e+003
1.023925e+003, 1.134646e+003
1.024407e+003, 1.095439e+003
1.024890e+003, 1.058122e+003
1.025372e+003, 1.024536e+003
1.025854e+003, 9.949313e+002
1.026336e+003, 9.652083e+002
1.026818e+003, 9.353055e+002
1.027300e+003, 9.077692e+002
1.027782e+003, 8.846014e+002
1.028264e+003, 8.638403e+002
1.028746e+003, 8.428075e+002
1.029229e+003, 8.228038e+002
1.029711e+003, 8.088615e+002
1.030193e+003, 8.037700e+002
1.030675e+003, 7.972572e+002
1.031157e+003, 7.867057e+002
1.031639e+003, 7.760941e+002
1.032121e+003, 7.729418e+002
1.032603e+003, 7.736478e+002
1.033086e+003, 7.693632e+002
1.033568e+003, 7.577702e+002
1.034050e+003, 7.472249e+002
1.034532e+003, 7.426578e+002
1.035014e+003, 7.390822e+002
1.035496e+003, 7.337421e+002
1.035978e+003, 7.268730e+002
1.036460e+003, 7.206614e+002
1.036943e+003, 7.151869e+002
1.037425e+003, 7.094000e+002
1.037907e+003, 7.031083e+002
1.038389e+003, 6.960141e+002
1.038871e+003, 6.869479e+002
1.039353e+003, 6.771764e+002
1.039835e+003, 6.691243e+002
1.040317e+003, 6.643470e+002
1.040799e+003, 6.591764e+002
1.041281e+003, 6.534333e+002
1.041764e+003, 6.473755e+002
1.042246e+003, 6.411619e+002
1.042728e+003, 6.348083e+002
1.043210e+003, 6.282139e+002
1.043692e+003, 6.214022e+002
1.044174e+003, 6.156730e+002
1.044656e+003, 6.124481e+002
1.045138e+003, 6.095090e+002
1.045621e+003, 6.057484e+002
1.046103e+003, 6.016583e+002
1.046585e+003, 5.985979e+002
1.047067e+003, 5.965978e+002
1.047549e+003, 5.950671e+002
1.048031e+003, 5.940657e+002
1.048513e+003, 5.928530e+002
1.048995e+003, 5.904410e+002
1.049478e+003, 5.875613e+002
1.049960e+003, 5.849948e+002
1.050442e+003, 5.828861e+002
1.050924e+003, 5.810439e+002
1.051406e+003, 5.792101e+002
1.051888e+003, 5.782656e+002
1.052370e+003, 5.795590e+002
1.052852e+003, 5.816238e+002
1.053334e+003, 5.795923e+002
1.053817e+003, 5.748311e+002
1.054299e+003, 5.719066e+002
1.054781e+003, 5.751522e+002
1.055263e+003, 5.776671e+002
1.055745e+003, 5.768248e+002
1.056227e+003, 5.746365e+002
1.056709e+003, 5.730510e+002
1.057191e+003, 5.720617e+002
1.057673e+003, 5.723157e+002
1.058156e+003, 5.739284e+002
1.058638e+003, 5.754452e+002
1.059120e+003, 5.751020e+002
1.059602e+003, 5.746493e+002
1.060084e+003, 5.762047e+002
1.060566e+003, 5.794513e+002
1.061048e+003, 5.804139e+002
1.061530e+003, 5.782944e+002
1.062013e+003, 5.760198e+002
1.062495e+003, 5.743944e+002
1.062977e+003, 5.728715e+002
1.063459e+003, 5.698822e+002
1.063941e+003, 5.664828e+002
1.064423e+003, 5.646630e+002
1.064905e+003, 5.649898e+002
1.065387e+003, 5.664961e+002
1.065870e+003, 5.709043e+002
1.066352e+003, 5.742043e+002
1.066834e+003, 5.736383e+002
1.067316e+003, 5.699520e+002
1.067798e+003, 5.690557e+002
1.068280e+003, 5.707061e+002
1.068762e+003, 5.727889e+002
1.069244e+003, 5.748282e+002
1.069726e+003, 5.762665e+002
1.070208e+003, 5.756086e+002
1.070691e+003, 5.745468e+002
1.071173e+003, 5.761556e+002
1.071655e+003, 5.820360e+002
1.072137e+003, 5.842628e+002
1.072619e+003, 5.818278e+002
1.073101e+003, 5.792833e+002
1.073583e+003, 5.818221e+002
1.074065e+003, 5.861632e+002
1.074548e+003, 5.878710e+002
1.075030e+003, 5.870394e+002
1.075512e+003, 5.865549e+002
1.075994e+003, 5.874348e+002
1.076476e+003, 5.881869e+002
1.076958e+003, 5.882887e+002
1.077440e+003, 5.883997e+002
1.077922e+003, 5.899440e+002
1.078405e+003, 5.925336e+002
1.078887e+003, 5.948870e+002
1.079369e+003, 5.967153e+002
1.079851e+003, 5.986404e+002
1.080333e+003, 6.008500e+002
1.080815e+003, 6.034122e+002
1.081297e+003, 6.059637e+002
1.081779e+003, 6.086881e+002
1.082261e+003, 6.140897e+002
1.082744e+003, 6.221764e+002
1.083226e+003, 6.296668e+002
1.083708e+003, 6.349052e+002
1.084190e+003, 6.392809e+002
1.084672e+003, 6.427238e+002
1.085154e+003, 6.466594e+002
1.085636e+003, 6.533945e+002
1.086118e+003, 6.641665e+002
1.086601e+003, 6.750190e+002
1.087083e+003, 6.857146e+002
1.087565e+003, 6.973425e+002
1.088047e+003, 7.116256e+002
1.088529e+003, 7.269773e+002
1.089011e+003, 7.396945e+002
1.089493e+003, 7.508400e+002
1.089975e+003, 7.652866e+002
1.090458e+003, 7.858439e+002
1.090940e+003, 8.086473e+002
1.091422e+003, 8.325480e+002
1.091904e+003, 8.584715e+002
1.092386e+003, 8.875895e+002
1.092868e+003, 9.196217e+002
1.093350e+003, 9.526559e+002
1.093832e+003, 9.864183e+002
1.094314e+003, 1.022576e+003
1.094797e+003, 1.064073e+003
1.095279e+003, 1.106485e+003
1.095761e+003, 1.149036e+003
1.096243e+003, 1.190052e+003
1.096725e+003, 1.226148e+003
1.097207e+003, 1.257359e+003
1.097689e+003, 1.281783e+003
1.098171e+003, 1.299812e+003
1.098653e+003, 1.308132e+003
1.099136e+003, 1.303093e+003
1.099618e+003, 1.286939e+003
1.100100e+003, 1.260898e+003
1.100582e+003, 1.223680e+003
1.101064e+003, 1.184229e+003
1.101546e+003, 1.142452e+003
1.102028e+003, 1.098068e+003
1.102510e+003, 1.047522e+003
1.102993e+003, 9.964979e+002
1.103475e+003, 9.554545e+002
1.103957e+003, 9.215997e+002
1.104439e+003, 8.888947e+002
1.104921e+003, 8.542546e+002
1.105403e+003, 8.229222e+002
1.105885e+003, 7.956864e+002
1.106367e+003, 7.714551e+002
1.106849e+003, 7.493673e+002
1.107332e+003, 7.296888e+002
1.107814e+003, 7.141744e+002
1.108296e+003, 7.024047e+002
1.108778e+003, 6.917610e+002
1.109260e+003, 6.810022e+002
1.109742e+003, 6.707457e+002
1.110224e+003, 6.605270e+002
1.110706e+003, 6.512677e+002
1.111188e+003, 6.452253e+002
1.111671e+003, 6.421854e+002
1.112153e+003, 6.361818e+002
1.112635e+003, 6.260250e+002
1.113117e+003, 6.167960e+002
1.113599e+003, 6.131986e+002
1.114081e+003, 6.117130e+002
1.114563e+003, 6.102238e+002
1.115045e+003, 6.084525e+002
1.115528e+003, 6.052154e+002
1.116010e+003, 5.999501e+002
1.116492e+003, 5.967565e+002
1.116974e+003, 5.975526e+002
1.117456e+003, 5.989153e+002
1.117938e+003, 5.961556e+002
1.118420e+003, 5.915211e+002
1.118902e+003, 5.879880e+002
1.119385e+003, 5.864470e+002
1.119867e+003, 5.843519e+002
1.120349e+003, 5.815748e+002
1.120831e+003, 5.782643e+002
1.121313e+003, 5.740062e+002
1.121795e+003, 5.697253e+002
1.122277e+003, 5.676685e+002
1.122759e+003, 5.671064e+002
1.123241e+003, 5.663181e+002
1.123724e+003, 5.649691e+002
1.124206e+003, 5.628793e+002
1.124688e+003, 5.594547e+002
1.125170e+003, 5.562206e+002
1.125652e+003, 5.547042e+002
1.126134e+003, 5.545287e+002
1.126616e+003, 5.537797e+002
1.127098e+003, 5.525217e+002
1.127580e+003, 5.512294e+002
1.128063e+003, 5.499436e+002
1.128545e+003, 5.489298e+002
1.129027e+003, 5.485704e+002
1.129509e+003, 5.483756e+002
1.129991e+003, 5.474689e+002
1.130473e+003, 5.458878e+002
1.130955e+003, 5.455760e+002
1.131437e+003, 5.467152e+002
1.131920e+003, 5.479752e+002
1.132402e+003, 5.485549e+002
1.132884e+003, 5.487161e+002
1.133366e+003, 5.486985e+002
1.133848e+003, 5.483953e+002
1.134330e+003, 5.473934e+002
1.134812e+003, 5.456313e+002
1.135294e+003, 5.433861e+002
1.135776e+003, 5.404432e+002
1.136259e+003, 5.383788e+002
1.136741e+003, 5.395937e+002
1.137223e+003, 5.419949e+002
1.137705e+003, 5.434517e+002
1.138187e+003, 5.436527e+002
1.138669e+003, 5.442852e+002
1.139151e+003, 5.459175e+002
1.139633e+003, 5.457474e+002
1.140115e+003, 5.419665e+002
1.140598e+003, 5.376137e+002
1.141080e+003, 5.378824e+002
1.141562e+003, 5.403639e+002
1.142044e+003, 5.410448e+002
1.142526e+003, 5.381051e+002
1.143008e+003, 5.370065e+002
1.143490e+003, 5.391198e+002
1.143972e+003, 5.409003e+002
1.144455e+003, 5.404288e+002
1.144937e+003, 5.383359e+002
1.145419e+003, 5.351960e+002
1.145901e+003, 5.317154e+002
1.146383e+003, 5.296674e+002
1.146865e+003, 5.308937e+002
1.147347e+003, 5.316807e+002
1.147829e+003, 5.313778e+002
1.148312e+003, 5.306307e+002
1.148794e+003, 5.294552e+002
1.149276e+003, 5.282227e+002
1.149758e+003, 5.294725e+002
1.150240e+003, 5.326748e+002
1.150722e+003, 5.349473e+002
1.151204e+003, 5.344946e+002
1.151686e+003, 5.332257e+002
1.152168e+003, 5.306395e+002
1.152651e+003, 5.285471e+002
1.153133e+003, 5.297532e+002
1.153615e+003, 5.338088e+002
1.154097e+003, 5.362736e+002
1.154579e+003, 5.368240e+002
1.155061e+003, 5.358781e+002
1.155543e+003, 5.320155e+002
1.156025e+003, 5.284612e+002
1.156507e+003, 5.268904e+002
1.156990e+003, 5.269207e+002
1.157472e+003, 5.284845e+002
1.157954e+003, 5.316013e+002
1.158436e+003, 5.333738e+002
1.158918e+003, 5.333259e+002
1.159400e+003, 5.329847e+002
1.159882e+003, 5.335733e+002
1.160364e+003, 5.343663e+002
1.160847e+003, 5.351239e+002
1.161329e+003, 5.356362e+002
1.161811e+003, 5.347928e+002
1.162293e+003, 5.324672e+002
1.162775e+003, 5.302277e+002
1.163257e+003, 5.283350e+002
1.163739e+003, 5.271147e+002
1.164221e+003, 5.276208e+002
1.164703e+003, 5.284495e+002
1.165186e+003, 5.279132e+002
1.165668e+003, 5.258116e+002
1.166150e+003, 5.248714e+002
1.166632e+003, 5.252385e+002
1.167114e+003, 5.260943e+002
1.167596e+003, 5.274582e+002
1.168078e+003, 5.285294e+002
1.168560e+003, 5.276782e+002
1.169042e+003, 5.261761e+002
1.169525e+003, 5.259220e+002
1.170007e+003, 5.278171e+002
1.170489e+003, 5.283122e+002
1.170971e+003, 5.268904e+002
1.171453e+003, 5.259973e+002
1.171935e+003, 5.273024e+002
1.172417e+003, 5.293737e+002
1.172899e+003, 5.298597e+002
1.173382e+003, 5.294809e+002
1.173864e+003, 5.295400e+002
1.174346e+003, 5.305280e+002
1.174828e+003, 5.317443e+002
1.175310e+003, 5.334893e+002
1.175792e+003, 5.345956e+002
1.176274e+003, 5.337511e+002
1.176756e+003, 5.319769e+002
1.177239e+003, 5.312281e+002
1.177721e+003, 5.311957e+002
1.178203e+003, 5.310496e+002
1.178685e+003, 5.300906e+002
1.179167e+003, 5.298286e+002
1.179649e+003, 5.307324e+002
1.180131e+003, 5.315569e+002
1.180613e+003, 5.304105e+002
1.181095e+003, 5.286332e+002
1.181578e+003, 5.300939e+002
1.182060e+003, 5.339651e+002
1.182542e+003, 5.362414e+002
1.183024e+003, 5.339495e+002
1.183506e+003, 5.319584e+002
1.183988e+003, 5.307651e+002
1.184470e+003, 5.304348e+002
1.184952e+003, 5.319503e+002
1.185434e+003, 5.341637e+002
1.185917e+003, 5.334589e+002
1.186399e+003, 5.300371e+002
1.186881e+003, 5.277550e+002
1.187363e+003, 5.285312e+002
1.187845e+003, 5.304913e+002
1.188327e+003, 5.340970e+002
1.188809e+003, 5.372968e+002
1.189291e+003, 5.356630e+002
1.189774e+003, 5.311894e+002
1.190256e+003, 5.308014e+002
1.190738e+003, 5.351870e+002
1.191220e+003, 5.378061e+002
1.191702e+003, 5.328839e+002
1.192184e+003, 5.295555e+002
1.192666e+003, 5.313635e+002
1.193148e+003, 5.355157e+002
1.193630e+003, 5.359924e+002
1.194113e+003, 5.340417e+002
1.194595e+003, 5.342286e+002
1.195077e+003, 5.375652e+002
1.195559e+003, 5.401281e+002
1.196041e+003, 5.398961e+002
1.196523e+003, 5.385953e+002
1.197005e+003, 5.364175e+002
1.197487e+003, 5.340372e+002
1.197969e+003, 5.335682e+002
1.198452e+003, 5.345107e+002
1.198934e+003, 5.349103e+002
1.199416e+003, 5.341197e+002
1.199898e+003, 5.337145e+002
1.200380e+003, 5.357037e+002
1.200862e+003, 5.366805e+002
1.201344e+003, 5.343250e+002
1.201826e+003, 5.300917e+002
1.202309e+003, 5.298378e+002
1.202791e+003, 5.325546e+002
1.203273e+003, 5.341979e+002
1.203755e+003, 5.333402e+002
1.204237e+003, 5.320658e+002
1.204719e+003, 5.308666e+002
1.205201e+003, 5.300336e+002
1.205683e+003, 5.298183e+002
1.206166e+003, 5.301017e+002
1.206648e+003, 5.304852e+002
1.207130e+003, 5.308632e+002
1.207612e+003, 5.306309e+002
1.208094e+003, 5.287718e+002
1.208576e+003, 5.280441e+002
1.209058e+003, 5.310389e+002
1.209540e+003, 5.342150e+002
1.210022e+003, 5.353973e+002
1.210505e+003, 5.348209e+002
1.210987e+003, 5.333008e+002
1.211469e+003, 5.311899e+002
1.211951e+003, 5.303084e+002
1.212433e+003, 5.330264e+002
1.212915e+003, 5.344950e+002
1.213397e+003, 5.308695e+002
1.213879e+003, 5.272830e+002
1.214361e+003, 5.282021e+002
1.214844e+003, 5.327318e+002
1.215326e+003, 5.338203e+002
1.215808e+003, 5.321735e+002
1.216290e+003, 5.314049e+002
1.216772e+003, 5.356478e+002
1.217254e+003, 5.378212e+002
1.217736e+003, 5.340558e+002
1.218218e+003, 5.292707e+002
1.218701e+003, 5.278976e+002
1.219183e+003, 5.292977e+002
1.219665e+003, 5.288380e+002
1.220147e+003, 5.268719e+002
1.220629e+003, 5.255903e+002
1.221111e+003, 5.268225e+002
1.221593e+003, 5.279039e+002
1.222075e+003, 5.282078e+002
1.222557e+003, 5.279532e+002
1.223040e+003, 5.268649e+002
1.223522e+003, 5.253492e+002
1.224004e+003, 5.259838e+002
1.224486e+003, 5.283792e+002
1.224968e+003, 5.298116e+002
1.225450e+003, 5.284169e+002
1.225932e+003, 5.264992e+002
1.226414e+003, 5.240756e+002
1.226896e+003, 5.221562e+002
1.227379e+003, 5.222805e+002
1.227861e+003, 5.238642e+002
1.228343e+003, 5.247429e+002
1.228825e+003, 5.249398e+002
1.229307e+003, 5.254146e+002
1.229789e+003, 5.279116e+002
1.230271e+003, 5.287649e+002
1.230753e+003, 5.266192e+002
1.231236e+003, 5.235178e+002
1.231718e+003, 5.219506e+002
1.232200e+003, 5.215868e+002
1.232682e+003, 5.217159e+002
1.233164e+003, 5.222513e+002
1.233646e+003, 5.229451e+002
1.234128e+003, 5.244742e+002
1.234610e+003, 5.248570e+002
1.235093e+003, 5.230975e+002
1.235575e+003, 5.212211e+002
1.236057e+003, 5.227362e+002
1.236539e+003, 5.259614e+002
1.237021e+003, 5.268431e+002
1.237503e+003, 5.253019e+002
1.237985e+003, 5.241425e+002
1.238467e+003, 5.243380e+002
1.238949e+003, 5.250461e+002
1.239432e+003, 5.264342e+002
1.239914e+003, 5.276390e+002
1.240396e+003, 5.268048e+002
1.240878e+003, 5.252115e+002
1.241360e+003, 5.256826e+002
1.241842e+003, 5.282421e+002
1.242324e+003, 5.294666e+002
1.242806e+003, 5.277507e+002
1.243288e+003, 5.267571e+002
1.243771e+003, 5.274006e+002
1.244253e+003, 5.283542e+002
1.244735e+003, 5.275335e+002
1.245217e+003, 5.260631e+002
1.245699e+003, 5.257195e+002
1.246181e+003, 5.266055e+002
1.246663e+003, 5.273739e+002
1.247145e+003, 5.280697e+002
1.247628e+003, 5.281688e+002
1.248110e+003, 5.275696e+002
1.248592e+003, 5.263390e+002
1.249074e+003, 5.233492e+002
1.249556e+003, 5.205883e+002
1.250038e+003, 5.208254e+002
1.250520e+003, 5.241584e+002
1.251002e+003, 5.269056e+002
1.251484e+003, 5.290909e+002
1.251967e+003, 5.298988e+002
1.252449e+003, 5.289566e+002
1.252931e+003, 5.273234e+002
1.253413e+003, 5.250830e+002
1.253895e+003, 5.235206e+002
1.254377e+003, 5.246246e+002
1.254859e+003, 5.281517e+002
1.255341e+003, 5.298961e+002
1.255823e+003, 5.296542e+002
1.256306e+003, 5.291951e+002
1.256788e+003, 5.288001e+002
1.257270e+003, 5.289332e+002
1.257752e+003, 5.309296e+002
1.258234e+003, 5.329104e+002
1.258716e+003, 5.331215e+002
1.259198e+003, 5.318121e+002
1.259680e+003, 5.299337e+002
1.260163e+003, 5.274653e+002
1.260645e+003, 5.259595e+002
1.261127e+003, 5.258573e+002
1.261609e+003, 5.260444e+002
1.262091e+003, 5.251009e+002
1.262573e+003, 5.247475e+002
1.263055e+003, 5.265328e+002
1.263537e+003, 5.297295e+002
1.264020e+003, 5.321483e+002
1.264502e+003, 5.337072e+002
1.264984e+003, 5.333036e+002
1.265466e+003, 5.304105e+002
1.265948e+003, 5.276046e+002
1.266430e+003, 5.262355e+002
1.266912e+003, 5.255880e+002
1.267394e+003, 5.252904e+002
1.267876e+003, 5.253505e+002
1.268359e+003, 5.259622e+002
1.268841e+003, 5.269500e+002
1.269323e+003, 5.277360e+002
1.269805e+003, 5.282152e+002
1.270287e+003, 5.282662e+002
1.270769e+003, 5.272487e+002
1.271251e+003, 5.265543e+002
1.271733e+003, 5.268189e+002
1.272215e+003, 5.274647e+002
1.272698e+003, 5.271928e+002
1.273180e+003, 5.263277e+002
1.273662e+003, 5.252842e+002
1.274144e+003, 5.239529e+002
1.274626e+003, 5.244846e+002
1.275108e+003, 5.284029e+002
1.275590e+003, 5.317178e+002
1.276072e+003, 5.331199e+002
1.276555e+003, 5.332926e+002
1.277037e+003, 5.334083e+002
1.277519e+003, 5.329972e+002
1.278001e+003, 5.306989e+002
1.278483e+003, 5.261045e+002
1.278965e+003, 5.242542e+002
1.279447e+003, 5.261959e+002
1.279929e+003, 5.275911e+002
1.280411e+003, 5.267363e+002
1.280894e+003, 5.258922e+002
1.281376e+003, 5.289008e+002
1.281858e+003, 5.327731e+002
1.282340e+003, 5.338334e+002
1.282822e+003, 5.318987e+002
1.283304e+003, 5.305718e+002
1.283786e+003, 5.297730e+002
1.284268e+003, 5.309256e+002
1.284750e+003, 5.350862e+002
1.285233e+003, 5.384812e+002
1.285715e+003, 5.363781e+002
1.286197e+003, 5.330808e+002
1.286679e+003, 5.324167e+002
1.287161e+003, 5.336865e+002
1.287643e+003, 5.333248e+002
1.288125e+003, 5.314885e+002
1.288607e+003, 5.302230e+002
1.289090e+003, 5.301303e+002
1.289572e+003, 5.299590e+002
1.290054e+003, 5.279385e+002
1.290536e+003, 5.268200e+002
1.291018e+003, 5.284053e+002
1.291500e+003, 5.315106e+002
1.291982e+003, 5.330956e+002
1.292464e+003, 5.333182e+002
1.292947e+003, 5.326387e+002
1.293429e+003, 5.310639e+002
1.293911e+003, 5.294276e+002
1.294393e+003, 5.272794e+002
1.294875e+003, 5.261879e+002
1.295357e+003, 5.266647e+002
1.295839e+003, 5.283738e+002
1.296321e+003, 5.321271e+002
1.296803e+003, 5.361921e+002
1.297286e+003, 5.364237e+002
1.297768e+003, 5.320018e+002
1.298250e+003, 5.301608e+002
1.298732e+003, 5.328456e+002
1.299214e+003, 5.349225e+002
1.299696e+003, 5.348832e+002
1.300178e+003, 5.343820e+002
1.300660e+003, 5.351904e+002
##END=



