##NAMES=Kleinite
##RRUFFID=R060329
##IDEAL CHEMISTRY=Hg_2_N(Cl,S^6+^O_4_)&#183;nH_2_O
##LOCALITY=McDermott mine, Humboldt County, Nevada, USA
##OWNER=RRUFF
##SOURCE=Michael Scott
##DESCRIPTION=Light yellow hexagonal prismatic or tabular crystals, associated with orange or dark yellow platy terlinguacreekite.
##STATUS=The identification of this mineral has been confirmed by single-crystal X-ray diffraction.
##URL=rruff.info/R060329
92.19379, 991.8993
92.67590, 996.7960
93.15802, 999.1472
93.64014, 997.2063
94.12225, 992.9625
94.60437, 991.8742
95.08649, 996.5081
95.56860, 1004.050
96.05072, 1008.926
96.53284, 1011.838
97.01495, 1014.347
97.49707, 1017.512
97.97919, 1021.272
98.46130, 1025.629
98.94342, 1029.696
99.42554, 1033.747
99.90765, 1042.687
100.3898, 1057.507
100.8719, 1074.935
101.3540, 1090.248
101.8361, 1103.048
102.3182, 1115.806
102.8004, 1129.429
103.2825, 1143.638
103.7646, 1159.490
104.2467, 1177.677
104.7288, 1197.091
105.2109, 1214.997
105.6931, 1231.240
106.1752, 1246.754
106.6573, 1262.276
107.1394, 1278.807
107.6215, 1293.801
108.1036, 1307.873
108.5858, 1320.767
109.0679, 1330.457
109.5500, 1336.188
110.0321, 1339.604
110.5142, 1341.574
110.9963, 1342.127
111.4785, 1341.414
111.9606, 1338.827
112.4427, 1334.477
112.9248, 1330.951
113.4069, 1329.125
113.8890, 1327.986
114.3712, 1326.693
114.8533, 1323.934
115.3354, 1322.039
115.8175, 1321.813
116.2996, 1323.340
116.7817, 1325.712
117.2639, 1329.126
117.7460, 1333.066
118.2281, 1336.872
118.7102, 1340.393
119.1923, 1343.642
119.6744, 1346.748
120.1566, 1349.866
120.6387, 1352.120
121.1208, 1352.147
121.6029, 1350.842
122.0850, 1350.037
122.5671, 1349.863
123.0493, 1350.935
123.5314, 1354.434
124.0135, 1361.505
124.4956, 1368.530
124.9777, 1373.984
125.4598, 1377.088
125.9420, 1374.762
126.4241, 1362.930
126.9062, 1344.498
127.3883, 1324.485
127.8704, 1303.255
128.3525, 1281.760
128.8347, 1261.343
129.3168, 1241.901
129.7989, 1223.278
130.2810, 1204.947
130.7631, 1187.178
131.2452, 1170.346
131.7274, 1154.500
132.2095, 1139.709
132.6916, 1126.498
133.1737, 1114.935
133.6558, 1103.911
134.1379, 1092.124
134.6201, 1079.585
135.1022, 1066.663
135.5843, 1053.415
136.0664, 1039.884
136.5485, 1026.736
137.0306, 1013.783
137.5128, 1001.514
137.9949, 990.4584
138.4770, 980.8905
138.9591, 970.9310
139.4412, 959.4982
139.9233, 946.4831
140.4055, 934.8586
140.8876, 925.0613
141.3697, 916.1320
141.8518, 906.2269
142.3339, 894.6078
142.8160, 883.7460
143.2982, 874.7102
143.7803, 868.3036
144.2624, 861.3936
144.7445, 853.8729
145.2266, 845.8731
145.7087, 837.9465
146.1909, 829.3113
146.6730, 821.5897
147.1551, 815.4354
147.6372, 812.0670
148.1193, 808.3294
148.6014, 803.9420
149.0836, 799.1636
149.5657, 794.6747
150.0478, 790.0342
150.5299, 786.1365
151.0120, 783.3557
151.4941, 783.0154
151.9763, 782.2450
152.4584, 780.6258
152.9405, 778.3759
153.4226, 776.5900
153.9047, 775.9034
154.3868, 775.3327
154.8690, 774.3417
155.3511, 772.0349
155.8332, 770.1885
156.3153, 769.0980
156.7974, 768.7354
157.2795, 768.8389
157.7617, 769.6802
158.2438, 770.8072
158.7259, 771.8955
159.2080, 772.8062
159.6901, 773.7518
160.1722, 774.9529
160.6544, 776.3850
161.1365, 777.4656
161.6186, 777.4857
162.1007, 777.2625
162.5828, 777.5498
163.0649, 778.8648
163.5471, 780.4988
164.0292, 782.2687
164.5113, 784.1600
164.9934, 785.8151
165.4755, 787.4199
165.9576, 788.5837
166.4398, 788.8132
166.9219, 787.4834
167.4040, 785.4579
167.8861, 783.2492
168.3682, 780.8732
168.8503, 778.3343
169.3325, 776.0648
169.8146, 773.5817
170.2967, 770.1500
170.7788, 765.0896
171.2609, 759.1030
171.7430, 752.7996
172.2252, 746.1793
172.7073, 739.3710
173.1894, 732.5966
173.6715, 725.6594
174.1536, 718.3777
174.6357, 710.4639
175.1179, 702.1022
175.6000, 693.4453
176.0821, 684.5697
176.5642, 675.5048
177.0463, 666.1017
177.5284, 656.4703
178.0106, 647.1109
178.4927, 638.2469
178.9748, 629.7898
179.4569, 621.8651
179.9390, 614.4767
180.4211, 607.3752
180.9033, 600.1504
181.3854, 592.8193
181.8675, 585.6588
182.3496, 578.8918
182.8317, 572.4092
183.3138, 565.3988
183.7960, 557.6191
184.2781, 549.9317
184.7602, 543.8939
185.2423, 539.3100
185.7244, 535.0380
186.2065, 530.5007
186.6887, 525.6982
187.1708, 520.5378
187.6529, 514.9749
188.1350, 509.1373
188.6171, 503.2598
189.0992, 497.2970
189.5814, 491.5207
190.0635, 486.1873
190.5456, 481.1751
191.0277, 476.2466
191.5098, 471.4778
191.9919, 466.5693
192.4741, 460.7158
192.9562, 453.8840
193.4383, 447.3426
193.9204, 442.2915
194.4025, 438.6269
194.8846, 434.4884
195.3668, 429.4839
195.8489, 424.0830
196.3310, 419.4240
196.8131, 415.5609
197.2952, 412.0373
197.7773, 408.4789
198.2595, 404.8926
198.7416, 401.6765
199.2237, 399.0398
199.7058, 396.7123
200.1879, 394.0056
200.6700, 390.8685
201.1522, 387.4784
201.6343, 383.7939
202.1164, 379.7475
202.5985, 376.1377
203.0806, 373.1917
203.5627, 370.7052
204.0449, 367.9937
204.5270, 364.9196
205.0091, 362.0638
205.4912, 359.9324
205.9733, 358.6651
206.4554, 357.2534
206.9376, 355.5026
207.4197, 353.5531
207.9018, 351.8585
208.3839, 350.4267
208.8660, 349.2320
209.3481, 348.3905
209.8303, 348.0606
210.3124, 347.3836
210.7945, 346.2866
211.2766, 344.7797
211.7587, 342.8715
212.2408, 340.6028
212.7230, 337.8337
213.2051, 334.2648
213.6872, 329.5238
214.1693, 325.2422
214.6514, 321.6749
215.1335, 318.6949
215.6157, 315.8626
216.0978, 313.0302
216.5799, 310.5563
217.0620, 308.7397
217.5441, 307.8494
218.0262, 306.8062
218.5084, 305.4570
218.9905, 303.8544
219.4726, 302.3556
219.9547, 301.0063
220.4368, 299.6497
220.9189, 298.2014
221.4011, 296.6258
221.8832, 295.0330
222.3653, 293.4001
222.8474, 291.7614
223.3295, 290.2015
223.8116, 288.8456
224.2938, 287.4313
224.7759, 285.6808
225.2580, 283.1292
225.7401, 281.4586
226.2222, 281.1645
226.7043, 281.8378
227.1865, 281.7275
227.6686, 280.5565
228.1507, 279.0144
228.6328, 277.5063
229.1149, 276.1525
229.5970, 274.5513
230.0792, 272.6324
230.5613, 270.4508
231.0434, 268.2224
231.5255, 265.7325
232.0076, 263.5576
232.4897, 262.1057
232.9719, 261.7901
233.4540, 261.2844
233.9361, 260.5139
234.4182, 259.5198
234.9003, 258.4030
235.3824, 257.0282
235.8646, 255.7240
236.3467, 254.6641
236.8288, 253.9567
237.3109, 253.2357
237.7930, 252.4249
238.2751, 251.5962
238.7573, 251.0007
239.2394, 250.6938
239.7215, 250.5293
240.2036, 250.4751
240.6857, 250.6825
241.1678, 250.6227
241.6500, 250.1218
242.1321, 249.3999
242.6142, 249.0096
243.0963, 249.0181
243.5784, 249.2683
244.0605, 249.7199
244.5427, 250.4652
245.0248, 251.1885
245.5069, 251.9039
245.9890, 252.5980
246.4711, 253.2116
246.9532, 253.6662
247.4354, 254.1862
247.9175, 254.8443
248.3996, 255.6431
248.8817, 256.6220
249.3638, 257.9474
249.8459, 259.3656
250.3281, 260.2917
250.8102, 260.1329
251.2923, 260.5401
251.7744, 262.3335
252.2565, 266.0677
252.7386, 268.7131
253.2208, 269.7620
253.7029, 270.0951
254.1850, 271.1745
254.6671, 273.4707
255.1492, 275.5849
255.6313, 276.9486
256.1135, 277.3613
256.5956, 278.3668
257.0777, 280.2396
257.5598, 282.4165
258.0419, 284.1112
258.5240, 285.0883
259.0062, 286.0739
259.4883, 287.3497
259.9704, 288.9388
260.4525, 290.1186
260.9346, 290.8413
261.4167, 291.2002
261.8989, 291.2078
262.3810, 290.6594
262.8631, 290.3348
263.3452, 290.5309
263.8273, 291.2493
264.3094, 291.5938
264.7916, 291.5611
265.2737, 291.1889
265.7558, 290.4422
266.2379, 289.2029
266.7200, 288.0208
267.2021, 287.0879
267.6843, 286.3416
268.1664, 284.9688
268.6485, 282.5870
269.1306, 280.3713
269.6127, 279.6924
270.0948, 281.1432
270.5770, 281.3897
271.0591, 279.5627
271.5412, 276.1315
272.0233, 273.3105
272.5054, 271.3030
272.9875, 269.4639
273.4697, 267.2537
273.9518, 264.5313
274.4339, 262.2903
274.9160, 260.8254
275.3981, 259.8197
275.8802, 258.1562
276.3624, 255.6750
276.8445, 253.2720
277.3266, 251.6515
277.8087, 250.8883
278.2908, 249.7850
278.7729, 248.1720
279.2551, 246.2593
279.7372, 244.5773
280.2193, 243.1594
280.7014, 241.7241
281.1835, 240.0050
281.6656, 238.0109
282.1478, 236.3710
282.6299, 235.1572
283.1120, 234.2104
283.5941, 233.3686
284.0762, 232.6416
284.5583, 231.7287
285.0405, 230.3269
285.5226, 228.5172
286.0047, 227.0642
286.4868, 226.0029
286.9689, 225.1944
287.4510, 224.5137
287.9332, 223.9540
288.4153, 223.3825
288.8974, 222.7064
289.3795, 221.9787
289.8616, 221.5419
290.3438, 221.4568
290.8259, 221.2349
291.3080, 220.0882
291.7901, 218.2070
292.2722, 216.6857
292.7543, 216.0466
293.2365, 215.9363
293.7186, 215.4851
294.2007, 214.6899
294.6828, 213.9677
295.1649, 213.8233
295.6470, 214.0831
296.1292, 214.1640
296.6113, 213.8775
297.0934, 213.3802
297.5755, 212.9089
298.0576, 212.4551
298.5397, 211.9500
299.0219, 211.2390
299.5040, 210.4417
299.9861, 209.8432
300.4682, 209.5509
300.9503, 209.3718
301.4324, 209.1168
301.9146, 208.7887
302.3967, 208.3827
302.8788, 207.8996
303.3609, 207.3387
303.8430, 206.6753
304.3251, 205.8726
304.8073, 205.0948
305.2894, 204.4691
305.7715, 203.9805
306.2536, 203.5765
306.7357, 203.3040
307.2178, 203.0639
307.7000, 202.7138
308.1821, 202.2197
308.6642, 201.8150
309.1463, 201.8216
309.6284, 202.0044
310.1105, 201.9973
310.5927, 201.5157
311.0748, 200.8818
311.5569, 200.2672
312.0390, 199.6810
312.5211, 199.1920
313.0032, 198.9573
313.4854, 198.7928
313.9675, 198.5061
314.4496, 197.7727
314.9317, 197.1438
315.4138, 197.0395
315.8959, 197.3560
316.3781, 197.4451
316.8602, 196.8097
317.3423, 195.9675
317.8244, 195.3168
318.3065, 195.2229
318.7886, 194.9361
319.2708, 193.9381
319.7529, 192.5222
320.2350, 191.5108
320.7171, 191.9332
321.1992, 192.2373
321.6813, 191.5551
322.1635, 189.2447
322.6456, 187.1573
323.1277, 185.5925
323.6098, 184.4732
324.0919, 183.6682
324.5740, 183.7375
325.0562, 183.5962
325.5383, 182.8406
326.0204, 181.2829
326.5025, 179.8098
326.9846, 178.5230
327.4667, 177.3355
327.9489, 176.1379
328.4310, 174.8123
328.9131, 173.6139
329.3952, 172.7206
329.8773, 172.1521
330.3594, 171.0912
330.8416, 169.1103
331.3237, 167.0135
331.8058, 165.3946
332.2879, 164.6180
332.7700, 163.6700
333.2521, 162.2659
333.7343, 160.5823
334.2164, 159.5355
334.6985, 159.4854
335.1806, 159.5245
335.6627, 159.1736
336.1448, 158.3362
336.6270, 157.3895
337.1091, 156.2859
337.5912, 155.1318
338.0733, 154.1275
338.5554, 153.3012
339.0375, 152.5678
339.5197, 151.9118
340.0018, 151.3437
340.4839, 150.7791
340.9660, 150.2483
341.4481, 149.6779
341.9302, 148.9409
342.4124, 148.0118
342.8945, 147.1622
343.3766, 146.4113
343.8587, 145.8025
344.3408, 145.6231
344.8229, 145.9390
345.3051, 146.2354
345.7872, 146.0113
346.2693, 145.3293
346.7514, 144.5364
347.2335, 143.5905
347.7156, 142.7275
348.1978, 142.5730
348.6799, 143.0742
349.1620, 143.5542
349.6441, 143.4604
350.1262, 143.0170
350.6083, 142.7680
351.0905, 142.8066
351.5726, 142.9372
352.0547, 142.9311
352.5368, 142.8273
353.0189, 142.7437
353.5010, 142.7712
353.9832, 142.8355
354.4653, 142.8844
354.9474, 142.9194
355.4295, 142.8271
355.9116, 142.4246
356.3937, 141.8540
356.8759, 141.3336
357.3580, 140.7984
357.8401, 140.4539
358.3222, 140.6005
358.8043, 141.1475
359.2864, 141.5453
359.7686, 141.2189
360.2507, 140.7662
360.7328, 140.7532
361.2149, 141.6936
361.6970, 142.4285
362.1791, 142.3395
362.6613, 141.6988
363.1434, 141.1343
363.6255, 140.8343
364.1076, 140.6614
364.5897, 140.5961
365.0718, 140.7083
365.5540, 140.6760
366.0361, 140.2038
366.5182, 139.6377
367.0003, 139.3931
367.4824, 139.8358
367.9645, 140.2784
368.4467, 140.5994
368.9288, 140.7908
369.4109, 140.9093
369.8930, 140.9966
370.3751, 140.9835
370.8572, 140.7876
371.3394, 140.0460
371.8215, 139.7697
372.3036, 140.3268
372.7857, 141.3938
373.2678, 141.7652
373.7499, 141.0759
374.2321, 140.3389
374.7142, 140.0192
375.1963, 140.1811
375.6784, 140.5271
376.1605, 141.1964
376.6426, 141.8647
377.1248, 141.8844
377.6069, 141.1082
378.0890, 140.5836
378.5711, 140.7683
379.0532, 141.5388
379.5353, 141.9622
380.0175, 142.0016
380.4996, 141.9002
380.9817, 141.9378
381.4638, 142.0778
381.9459, 141.9716
382.4280, 141.4650
382.9102, 140.7873
383.3923, 140.2645
383.8744, 139.9113
384.3565, 139.9346
384.8386, 140.9253
385.3207, 142.3150
385.8029, 142.7600
386.2850, 141.9930
386.7671, 141.0298
387.2492, 141.0020
387.7313, 141.5794
388.2134, 142.0117
388.6956, 141.7530
389.1777, 141.3283
389.6598, 141.1821
390.1419, 141.3186
390.6240, 141.6166
391.1061, 142.2029
391.5883, 142.8328
392.0704, 143.2479
392.5525, 143.2980
393.0346, 143.2346
393.5167, 142.9740
393.9988, 142.6661
394.4810, 142.7247
394.9631, 143.7702
395.4452, 144.8481
395.9273, 145.4226
396.4094, 145.2344
396.8915, 145.1765
397.3737, 145.5485
397.8558, 146.0908
398.3379, 146.4833
398.8200, 146.3672
399.3021, 146.4438
399.7842, 146.9490
400.2664, 147.8786
400.7485, 148.5736
401.2306, 148.7852
401.7127, 148.9920
402.1948, 149.5090
402.6769, 150.4939
403.1591, 151.4831
403.6412, 152.6411
404.1233, 153.6989
404.6054, 153.8421
405.0875, 152.6805
405.5696, 151.7585
406.0518, 151.8582
406.5339, 153.0211
407.0160, 153.6520
407.4981, 153.5697
407.9802, 153.4580
408.4623, 154.3018
408.9445, 156.0823
409.4266, 157.4880
409.9087, 158.0279
410.3908, 158.1058
410.8729, 158.7275
411.3550, 159.8799
411.8372, 161.0021
412.3193, 161.6081
412.8014, 161.9014
413.2835, 162.3561
413.7656, 163.0417
414.2477, 163.8723
414.7299, 164.6865
415.2120, 165.5653
415.6941, 166.6812
416.1762, 168.4576
416.6583, 170.2930
417.1404, 171.5873
417.6226, 172.3539
418.1047, 173.0585
418.5868, 174.0431
419.0689, 175.0655
419.5510, 175.8928
420.0331, 176.2067
420.5153, 176.6509
420.9974, 177.5636
421.4795, 178.7967
421.9616, 179.9393
422.4437, 180.8520
422.9258, 181.7017
423.4080, 182.5572
423.8901, 183.4452
424.3722, 184.3054
424.8543, 185.0388
425.3364, 185.7948
425.8185, 186.7121
426.3007, 187.8206
426.7828, 189.0750
427.2649, 190.5522
427.7470, 192.1919
428.2291, 193.6378
428.7112, 194.8178
429.1934, 195.9071
429.6755, 196.9528
430.1576, 197.8694
430.6397, 199.2073
431.1218, 201.1201
431.6039, 203.2213
432.0861, 204.8568
432.5682, 205.9866
433.0503, 207.2415
433.5324, 208.9099
434.0145, 210.8690
434.4966, 212.6930
434.9788, 214.3809
435.4609, 216.0191
435.9430, 217.5733
436.4251, 219.1515
436.9072, 221.1053
437.3893, 223.6424
437.8715, 226.2372
438.3536, 228.1731
438.8357, 229.6601
439.3178, 231.2835
439.7999, 233.2721
440.2820, 235.5846
440.7642, 238.2379
441.2463, 241.2530
441.7284, 244.2913
442.2105, 247.4911
442.6926, 250.4992
443.1747, 252.9619
443.6569, 254.3125
444.1390, 255.6732
444.6211, 257.2133
445.1032, 259.0035
445.5853, 261.2021
446.0674, 264.2380
446.5496, 267.3551
447.0317, 270.3354
447.5138, 273.2637
447.9959, 275.7583
448.4780, 277.3719
448.9601, 278.8893
449.4423, 281.2199
449.9244, 285.0819
450.4065, 288.1851
450.8886, 289.9431
451.3707, 290.6949
451.8528, 291.9671
452.3350, 293.8965
452.8171, 295.9518
453.2992, 297.8643
453.7813, 299.6347
454.2634, 301.5110
454.7455, 303.5181
455.2277, 305.5953
455.7098, 307.7578
456.1919, 309.9624
456.6740, 312.0693
457.1561, 313.9026
457.6382, 315.6711
458.1204, 317.7392
458.6025, 320.0829
459.0846, 322.3786
459.5667, 324.3396
460.0488, 326.1837
460.5309, 328.2697
461.0131, 330.7176
461.4952, 333.0616
461.9773, 334.7875
462.4594, 336.2138
462.9415, 337.8306
463.4236, 339.5053
463.9058, 341.6764
464.3879, 344.8152
464.8700, 348.7780
465.3521, 352.5628
465.8342, 355.6074
466.3163, 358.6730
466.7985, 362.1725
467.2806, 366.1441
467.7627, 370.5454
468.2448, 375.7514
468.7269, 381.1786
469.2090, 385.9955
469.6912, 389.6629
470.1733, 393.7998
470.6554, 398.8607
471.1375, 404.7558
471.6196, 410.6136
472.1017, 416.4000
472.5839, 422.2573
473.0660, 428.5116
473.5481, 435.1424
474.0302, 441.4593
474.5123, 447.3436
474.9944, 453.0930
475.4766, 459.0073
475.9587, 465.1259
476.4408, 471.7178
476.9229, 479.0276
477.4050, 486.7310
477.8871, 494.3160
478.3693, 501.7882
478.8514, 509.1487
479.3335, 515.9974
479.8156, 522.9408
480.2977, 530.7147
480.7798, 539.5864
481.2620, 548.7083
481.7441, 557.5779
482.2262, 566.3633
482.7083, 575.3134
483.1904, 584.5748
483.6725, 593.9739
484.1547, 603.3162
484.6368, 612.5810
485.1189, 622.1489
485.6010, 632.2347
486.0831, 642.5348
486.5652, 652.7791
487.0474, 662.8352
487.5295, 673.2929
488.0116, 684.3152
488.4937, 695.4948
488.9758, 706.4386
489.4579, 717.2835
489.9401, 727.4812
490.4222, 736.6652
490.9043, 745.1580
491.3864, 755.0674
491.8685, 766.6194
492.3506, 778.3203
492.8328, 789.2807
493.3149, 799.5280
493.7970, 809.0442
494.2791, 817.6035
494.7612, 826.7800
495.2433, 839.7480
495.7255, 854.9248
496.2076, 868.3428
496.6897, 877.4061
497.1718, 885.2430
497.6539, 894.0203
498.1360, 903.7950
498.6182, 915.0271
499.1003, 929.6125
499.5824, 944.5626
500.0645, 957.1729
500.5466, 966.7540
501.0287, 976.7057
501.5109, 987.8104
501.9930, 999.8785
502.4751, 1012.589
502.9572, 1026.350
503.4393, 1040.193
503.9214, 1053.693
504.4036, 1067.040
504.8857, 1081.401
505.3678, 1097.542
505.8499, 1113.634
506.3320, 1128.807
506.8141, 1142.949
507.2963, 1157.753
507.7784, 1173.338
508.2605, 1189.800
508.7426, 1207.885
509.2247, 1227.474
509.7068, 1246.646
510.1890, 1264.709
510.6711, 1282.750
511.1532, 1302.226
511.6353, 1323.078
512.1174, 1344.474
512.5995, 1366.611
513.0817, 1388.928
513.5638, 1410.608
514.0459, 1431.670
514.5280, 1452.899
515.0101, 1473.945
515.4922, 1495.932
515.9744, 1519.689
516.4565, 1545.869
516.9386, 1573.256
517.4207, 1602.711
517.9028, 1632.900
518.3849, 1661.630
518.8671, 1685.792
519.3492, 1711.447
519.8313, 1740.283
520.3134, 1771.919
520.7955, 1804.632
521.2776, 1838.271
521.7598, 1873.323
522.2419, 1909.879
522.7240, 1948.370
523.2061, 1986.837
523.6882, 2025.236
524.1703, 2063.963
524.6525, 2103.023
525.1346, 2142.689
525.6167, 2185.298
526.0988, 2232.099
526.5809, 2280.845
527.0630, 2326.551
527.5452, 2369.779
528.0273, 2414.501
528.5094, 2463.702
528.9915, 2515.684
529.4736, 2569.613
529.9557, 2625.683
530.4379, 2682.144
530.9200, 2739.154
531.4021, 2796.140
531.8842, 2852.696
532.3663, 2907.409
532.8484, 2963.382
533.3306, 3021.448
533.8127, 3081.128
534.2948, 3139.944
534.7769, 3198.338
535.2590, 3256.026
535.7411, 3312.859
536.2233, 3368.650
536.7054, 3424.816
537.1875, 3481.419
537.6696, 3537.501
538.1517, 3593.651
538.6339, 3649.669
539.1160, 3702.712
539.5981, 3752.453
540.0802, 3799.049
540.5623, 3844.785
541.0444, 3888.956
541.5266, 3928.781
542.0087, 3963.449
542.4908, 3993.219
542.9729, 4019.498
543.4550, 4041.015
543.9371, 4053.736
544.4193, 4053.597
544.9014, 4044.876
545.3835, 4030.814
545.8656, 4011.671
546.3477, 3987.211
546.8298, 3956.587
547.3120, 3920.592
547.7941, 3880.158
548.2762, 3833.741
548.7583, 3784.722
549.2404, 3730.965
549.7225, 3675.430
550.2047, 3622.957
550.6868, 3573.559
551.1689, 3527.101
551.6510, 3484.372
552.1331, 3444.881
552.6152, 3406.091
553.0974, 3367.563
553.5795, 3332.148
554.0616, 3301.801
554.5437, 3276.300
555.0258, 3254.132
555.5079, 3235.152
555.9901, 3219.886
556.4722, 3210.226
556.9543, 3204.356
557.4364, 3198.556
557.9185, 3191.913
558.4006, 3184.698
558.8828, 3176.906
559.3649, 3168.616
559.8470, 3159.888
560.3291, 3151.709
560.8112, 3142.085
561.2933, 3130.834
561.7755, 3117.875
562.2576, 3100.138
562.7397, 3076.646
563.2218, 3048.732
563.7039, 3016.998
564.1860, 2982.011
564.6682, 2941.532
565.1503, 2895.434
565.6324, 2843.579
566.1145, 2785.792
566.5966, 2721.224
567.0787, 2654.343
567.5609, 2586.063
568.0430, 2516.173
568.5251, 2444.975
569.0072, 2372.262
569.4893, 2301.542
569.9714, 2233.223
570.4536, 2167.829
570.9357, 2105.692
571.4178, 2047.030
571.8999, 1991.165
572.3820, 1937.871
572.8641, 1887.631
573.3463, 1842.127
573.8284, 1802.480
574.3105, 1763.781
574.7926, 1725.420
575.2747, 1686.818
575.7568, 1647.429
576.2390, 1607.075
576.7211, 1565.419
577.2032, 1522.600
577.6853, 1478.263
578.1674, 1432.652
578.6495, 1385.907
579.1317, 1337.434
579.6138, 1286.119
580.0959, 1232.539
580.5780, 1181.671
581.0601, 1133.193
581.5422, 1086.261
582.0244, 1039.267
582.5065, 993.0183
582.9886, 950.4540
583.4707, 911.3781
583.9528, 875.4986
584.4349, 843.0869
584.9171, 813.4203
585.3992, 785.4321
585.8813, 759.0193
586.3634, 733.8040
586.8455, 709.5808
587.3276, 686.4243
587.8098, 665.5211
588.2919, 648.0519
588.7740, 631.9240
589.2561, 616.5931
589.7382, 602.0583
590.2203, 588.2714
590.7025, 575.4721
591.1846, 563.2453
591.6667, 551.2579
592.1488, 539.4157
592.6309, 528.7001
593.1130, 519.1817
593.5952, 510.4368
594.0773, 502.1037
594.5594, 494.1093
595.0415, 486.3538
595.5236, 478.7657
596.0057, 471.3409
596.4879, 463.8569
596.9700, 456.5794
597.4521, 450.2121
597.9342, 445.7391
598.4163, 441.6655
598.8984, 437.2646
599.3806, 432.5151
599.8627, 427.6514
600.3448, 421.7467
600.8269, 416.5940
601.3090, 413.1161
601.7911, 411.7872
602.2733, 410.1923
602.7554, 408.1154
603.2375, 406.0763
603.7196, 404.5570
604.2017, 403.5566
604.6838, 402.9390
605.1660, 402.6295
605.6481, 402.8218
606.1302, 403.7961
606.6123, 405.5394
607.0944, 407.9678
607.5765, 411.0087
608.0587, 414.7805
608.5408, 419.6178
609.0229, 425.3551
609.5050, 431.5840
609.9871, 438.1254
610.4692, 444.9973
610.9514, 451.9974
611.4335, 459.1316
611.9156, 467.2809
612.3977, 477.0453
612.8798, 487.5855
613.3619, 498.2312
613.8441, 508.8693
614.3262, 520.1917
614.8083, 532.1562
615.2904, 544.9452
615.7725, 558.7076
616.2546, 573.4785
616.7368, 588.7086
617.2189, 604.6136
617.7010, 620.7505
618.1831, 635.9848
618.6652, 650.5565
619.1473, 665.5526
619.6295, 682.0900
620.1116, 698.7341
620.5937, 714.1381
621.0758, 728.3167
621.5579, 741.8326
622.0400, 755.0863
622.5222, 767.3093
623.0043, 778.3053
623.4864, 788.2881
623.9685, 795.6129
624.4506, 800.1841
624.9327, 802.0463
625.4149, 801.1746
625.8970, 797.5552
626.3791, 791.2054
626.8612, 781.9142
627.3433, 770.2488
627.8254, 756.9186
628.3076, 741.9218
628.7897, 725.1232
629.2718, 706.2525
629.7539, 685.8745
630.2360, 664.8000
630.7181, 643.1035
631.2003, 621.2828
631.6824, 598.6143
632.1645, 576.6067
632.6466, 556.8748
633.1287, 539.0565
633.6108, 521.8746
634.0930, 504.7858
634.5751, 488.0420
635.0572, 472.0421
635.5393, 456.8433
636.0214, 441.4925
636.5035, 425.2151
636.9857, 409.6706
637.4678, 396.2857
637.9499, 385.2745
638.4320, 375.2473
638.9141, 366.3264
639.3962, 358.0746
639.8784, 349.8969
640.3605, 341.9511
640.8426, 334.6223
641.3247, 328.2400
641.8068, 322.2654
642.2889, 315.8615
642.7711, 309.3969
643.2532, 303.5388
643.7353, 298.5306
644.2174, 294.3413
644.6995, 291.3696
645.1816, 289.4124
645.6638, 287.0532
646.1459, 283.5615
646.6280, 280.1653
647.1101, 277.2093
647.5922, 274.7235
648.0743, 272.6301
648.5565, 271.1383
649.0386, 269.5225
649.5207, 266.9648
650.0028, 263.6476
650.4849, 261.3357
650.9670, 260.2778
651.4492, 259.4800
651.9313, 257.7477
652.4134, 255.5563
652.8955, 253.9221
653.3776, 253.4087
653.8597, 252.7334
654.3419, 250.8737
654.8240, 248.3794
655.3061, 246.1219
655.7882, 244.4400
656.2703, 242.9011
656.7524, 241.4201
657.2346, 240.0157
657.7167, 238.7869
658.1988, 237.8958
658.6809, 236.8084
659.1630, 235.2685
659.6451, 233.3749
660.1273, 231.6744
660.6094, 230.1442
661.0915, 228.8352
661.5736, 227.8694
662.0557, 227.0994
662.5378, 226.4055
663.0200, 225.7726
663.5021, 224.6339
663.9842, 221.7936
664.4663, 218.6975
664.9484, 216.8580
665.4305, 217.0146
665.9127, 216.9623
666.3948, 216.0609
666.8769, 214.7583
667.3590, 213.5149
667.8411, 212.4120
668.3232, 211.2084
668.8054, 209.8220
669.2875, 208.4172
669.7696, 207.3482
670.2517, 206.6224
670.7338, 205.8228
671.2159, 204.8518
671.6981, 203.7203
672.1802, 202.3427
672.6623, 200.8060
673.1444, 199.3728
673.6265, 198.1643
674.1086, 197.1450
674.5908, 196.2282
675.0729, 195.4574
675.5550, 195.0488
676.0371, 195.5963
676.5192, 196.0489
677.0013, 195.8731
677.4835, 194.9954
677.9656, 194.3318
678.4477, 194.0527
678.9298, 193.6705
679.4119, 192.6562
679.8940, 190.9890
680.3762, 190.1535
680.8583, 190.2705
681.3404, 190.6611
681.8225, 190.7346
682.3046, 190.5415
682.7867, 190.1478
683.2689, 189.5091
683.7510, 188.8807
684.2331, 188.4559
684.7152, 188.1584
685.1973, 187.9017
685.6794, 187.5570
686.1616, 187.3770
686.6437, 187.5699
687.1258, 187.9151
687.6079, 188.0235
688.0900, 187.8665
688.5721, 187.5275
689.0543, 186.9498
689.5364, 186.2547
690.0185, 185.7951
690.5006, 185.5676
690.9827, 185.4319
691.4648, 185.3114
691.9470, 185.2390
692.4291, 185.2723
692.9112, 185.4023
693.3933, 185.5793
693.8754, 185.9201
694.3575, 186.1882
694.8397, 186.1700
695.3218, 185.8227
695.8039, 185.6087
696.2860, 185.6992
696.7681, 185.8384
697.2502, 185.8958
697.7324, 185.8449
698.2145, 185.8653
698.6966, 185.9822
699.1787, 186.1028
699.6608, 186.2066
700.1429, 186.2526
700.6251, 185.9569
701.1072, 185.2149
701.5893, 184.5108
702.0714, 184.2956
702.5535, 184.4339
703.0356, 184.7819
703.5178, 185.6280
703.9999, 186.0882
704.4820, 185.3519
704.9641, 184.1519
705.4462, 183.6558
705.9283, 184.5396
706.4105, 185.1301
706.8926, 185.1420
707.3747, 184.7886
707.8568, 184.5357
708.3389, 184.3804
708.8210, 184.3624
709.3032, 184.5254
709.7853, 184.8085
710.2674, 185.1340
710.7495, 185.4831
711.2316, 185.7628
711.7137, 185.9759
712.1959, 186.0575
712.6780, 185.8741
713.1601, 185.4695
713.6422, 185.1670
714.1243, 185.0471
714.6064, 185.0614
715.0886, 185.2795
715.5707, 185.7184
716.0528, 185.7087
716.5349, 185.0619
717.0170, 184.4490
717.4991, 184.4200
717.9813, 184.8692
718.4634, 184.7989
718.9455, 184.1564
719.4276, 183.7135
719.9097, 184.4870
720.3918, 185.7106
720.8740, 186.3288
721.3561, 186.1312
721.8382, 185.7096
722.3203, 184.9387
722.8024, 184.3013
723.2845, 184.2373
723.7667, 185.2441
724.2488, 186.0128
724.7309, 186.4799
725.2130, 186.7823
725.6951, 187.1377
726.1772, 187.5717
726.6594, 187.5986
727.1415, 187.0462
727.6236, 186.3493
728.1057, 186.0826
728.5878, 186.1500
729.0699, 186.2924
729.5521, 186.3872
730.0342, 186.5948
730.5163, 187.2623
730.9984, 188.0761
731.4805, 188.4765
731.9626, 187.7803
732.4448, 187.3067
732.9269, 187.1788
733.4090, 187.4459
733.8911, 188.5458
734.3732, 190.9495
734.8553, 192.0979
735.3375, 190.6410
735.8196, 187.8367
736.3017, 187.0697
736.7838, 188.0698
737.2659, 189.1873
737.7480, 189.5216
738.2302, 189.5610
738.7123, 189.7476
739.1944, 190.0508
739.6765, 190.2838
740.1586, 190.3218
740.6407, 190.3272
741.1229, 190.3524
741.6050, 190.3993
742.0871, 190.5170
742.5692, 190.7530
743.0513, 190.9487
743.5334, 190.9489
744.0156, 190.8056
744.4977, 190.9793
744.9798, 191.4701
745.4619, 192.0531
745.9440, 192.7834
746.4261, 193.3801
746.9083, 193.4097
747.3904, 192.8267
747.8725, 192.1898
748.3546, 191.6602
748.8367, 191.2438
749.3188, 190.9724
749.8010, 190.9097
750.2831, 190.7422
750.7652, 190.3553
751.2473, 190.0354
751.7294, 190.0515
752.2115, 190.3985
752.6937, 190.6944
753.1758, 190.9202
753.6579, 191.0916
754.1400, 191.2759
754.6221, 191.4055
755.1042, 191.3452
755.5864, 191.0320
756.0685, 190.6954
756.5506, 190.4391
757.0327, 190.2334
757.5148, 190.0572
757.9969, 189.9586
758.4791, 189.8058
758.9612, 189.5943
759.4433, 189.3323
759.9254, 188.9968
760.4075, 188.5753
760.8896, 188.2972
761.3718, 188.2326
761.8539, 188.1998
762.3360, 187.8430
762.8181, 187.3525
763.3002, 187.1808
763.7823, 187.7666
764.2645, 188.1354
764.7466, 187.3872
765.2287, 186.1956
765.7108, 185.5649
766.1929, 186.2096
766.6750, 186.6632
767.1572, 186.8458
767.6393, 186.7486
768.1214, 186.1991
768.6035, 185.1433
769.0856, 184.4726
769.5677, 184.4769
770.0499, 184.8342
770.5320, 185.2378
771.0141, 185.5938
771.4962, 185.6601
771.9783, 184.8996
772.4604, 184.2766
772.9426, 184.6811
773.4247, 185.5718
773.9068, 185.6546
774.3889, 183.8711
774.8710, 182.5863
775.3531, 182.3355
775.8353, 182.7834
776.3174, 183.0386
776.7995, 183.1008
777.2816, 182.9487
777.7637, 182.4743
778.2458, 181.8945
778.7280, 181.6767
779.2101, 181.6804
779.6922, 181.4597
780.1743, 180.5840
780.6564, 179.6383
781.1385, 178.7175
781.6207, 177.9253
782.1028, 177.7493
782.5849, 178.7538
783.0670, 179.4820
783.5491, 179.5320
784.0313, 179.0204
784.5134, 178.3367
784.9955, 177.4700
785.4776, 176.6806
785.9597, 176.1332
786.4418, 175.6922
786.9240, 175.0900
787.4061, 174.3959
787.8882, 173.8743
788.3703, 173.8512
788.8524, 173.8611
789.3345, 173.6833
789.8167, 173.3282
790.2988, 172.9599
790.7809, 172.5253
791.2630, 172.1919
791.7451, 172.0783
792.2272, 172.1004
792.7094, 171.8087
793.1915, 171.2199
793.6736, 170.6846
794.1557, 170.3886
794.6378, 170.2712
795.1199, 170.3653
795.6021, 170.6057
796.0842, 170.7089
796.5663, 170.5532
797.0484, 170.2295
797.5305, 169.5807
798.0126, 168.7010
798.4948, 168.4478
798.9769, 169.1250
799.4590, 169.6742
799.9411, 169.5384
800.4232, 168.9564
800.9053, 168.9332
801.3875, 169.4131
801.8696, 169.8373
802.3517, 169.7488
802.8338, 169.5329
803.3159, 169.6381
803.7980, 169.9969
804.2802, 170.1640
804.7623, 169.8336
805.2444, 169.4482
805.7265, 169.1360
806.2086, 168.8986
806.6907, 168.7283
807.1729, 168.5813
807.6550, 168.7029
808.1371, 169.4853
808.6192, 170.5049
809.1013, 170.4302
809.5834, 169.4466
810.0656, 168.6099
810.5477, 168.7009
811.0298, 169.0266
811.5119, 169.1377
811.9940, 169.0462
812.4761, 168.9780
812.9583, 169.0593
813.4404, 169.0486
813.9225, 168.7995
814.4046, 168.3909
814.8867, 168.3301
815.3688, 168.6340
815.8510, 168.9602
816.3331, 169.1673
816.8152, 169.2638
817.2973, 169.1975
817.7794, 169.0125
818.2615, 168.8908
818.7437, 169.0130
819.2258, 169.1289
819.7079, 168.9939
820.1900, 168.6944
820.6721, 168.8874
821.1542, 169.9700
821.6364, 170.6486
822.1185, 170.3525
822.6006, 169.4150
823.0827, 168.9125
823.5648, 168.8085
824.0469, 168.7640
824.5291, 168.5276
825.0112, 168.3335
825.4933, 168.5395
825.9754, 168.9928
826.4575, 169.2064
826.9396, 169.1066
827.4218, 168.6216
827.9039, 167.4116
828.3860, 165.8597
828.8681, 165.4067
829.3502, 166.2414
829.8323, 167.0528
830.3145, 167.4098
830.7966, 167.4757
831.2787, 167.5071
831.7608, 167.5063
832.2429, 167.4816
832.7250, 167.4223
833.2072, 167.3535
833.6893, 167.2975
834.1714, 167.2423
834.6535, 167.1597
835.1356, 167.1171
835.6177, 166.9007
836.0999, 166.3327
836.5820, 165.6974
837.0641, 165.8060
837.5462, 166.5714
838.0283, 166.9593
838.5104, 166.4753
838.9926, 165.7804
839.4747, 165.4735
839.9568, 165.5002
840.4389, 165.7658
840.9210, 166.4382
841.4031, 167.1100
841.8853, 167.9976
842.3674, 168.6770
842.8495, 168.3366
843.3316, 166.6492
843.8137, 165.6111
844.2958, 165.6297
844.7780, 166.1690
845.2601, 166.6902
845.7422, 167.0905
846.2243, 167.0325
846.7064, 166.1157
847.1885, 165.5169
847.6707, 166.4441
848.1528, 167.8181
848.6349, 168.3410
849.1170, 167.2669
849.5991, 166.4933
850.0812, 166.0987
850.5634, 165.9396
851.0455, 165.8871
851.5276, 165.9344
852.0097, 166.0430
852.4918, 166.2245
852.9739, 166.3561
853.4561, 166.3214
853.9382, 166.1773
854.4203, 165.9500
854.9024, 165.5692
855.3845, 165.3640
855.8666, 165.4627
856.3488, 165.6937
856.8309, 165.9542
857.3130, 166.2436
857.7951, 166.5900
858.2772, 167.0070
858.7593, 167.3471
859.2415, 167.4328
859.7236, 167.3697
860.2057, 167.3948
860.6878, 167.5239
861.1699, 167.4328
861.6520, 166.6166
862.1342, 165.8223
862.6163, 165.5088
863.0984, 165.6828
863.5805, 166.1378
864.0626, 167.0383
864.5447, 167.7392
865.0269, 167.8166
865.5090, 167.4203
865.9911, 166.9235
866.4732, 166.3724
866.9553, 166.0678
867.4374, 166.5346
867.9196, 167.0272
868.4017, 166.8839
868.8838, 166.2077
869.3659, 165.9079
869.8480, 166.2949
870.3301, 166.6420
870.8123, 166.6798
871.2944, 166.5533
871.7765, 166.8848
872.2586, 167.6106
872.7407, 168.0812
873.2228, 167.7413
873.7050, 167.3145
874.1871, 167.7385
874.6692, 168.6290
875.1513, 169.1548
875.6334, 168.5146
876.1155, 168.1708
876.5977, 168.4675
877.0798, 169.1390
877.5619, 169.7602
878.0440, 170.3403
878.5261, 170.7314
879.0082, 170.8629
879.4904, 170.9252
879.9725, 171.3630
880.4546, 171.8628
880.9367, 171.7854
881.4188, 170.5059
881.9009, 169.6299
882.3831, 170.1669
882.8652, 171.1060
883.3473, 171.3709
883.8294, 170.6965
884.3115, 170.4675
884.7936, 170.8463
885.2758, 171.2447
885.7579, 170.7440
886.2400, 169.8716
886.7221, 169.9972
887.2042, 171.3409
887.6863, 172.5743
888.1685, 172.6928
888.6506, 172.6216
889.1327, 173.0763
889.6148, 174.1893
890.0969, 175.0216
890.5790, 175.5096
891.0612, 175.8864
891.5433, 176.2033
892.0254, 176.5215
892.5075, 177.0620
892.9896, 177.8222
893.4717, 178.7661
893.9539, 180.2218
894.4360, 181.5554
894.9181, 182.1785
895.4002, 182.2272
895.8823, 182.6064
896.3644, 183.3569
896.8466, 184.4854
897.3287, 186.1227
897.8108, 188.0470
898.2929, 189.9721
898.7750, 191.7808
899.2571, 192.6898
899.7393, 191.7829
900.2214, 190.8087
900.7035, 191.3618
901.1856, 192.8226
901.6677, 194.1381
902.1498, 195.1790
902.6320, 195.8982
903.1141, 196.2012
903.5962, 196.2989
904.0783, 196.4225
904.5604, 196.5771
905.0425, 196.9680
905.5247, 197.7212
906.0068, 198.1000
906.4889, 197.0592
906.9710, 195.4457
907.4531, 194.2122
907.9352, 193.6120
908.4174, 193.0023
908.8995, 192.3684
909.3816, 191.6062
909.8637, 190.6294
910.3458, 189.4274
910.8279, 188.3197
911.3101, 187.3096
911.7922, 186.1879
912.2743, 184.7128
912.7564, 183.1040
913.2385, 181.6172
913.7206, 180.2370
914.2028, 178.7795
914.6849, 176.7169
915.1670, 175.1525
915.6491, 174.6151
916.1312, 174.7773
916.6133, 174.2932
917.0955, 173.1495
917.5776, 172.1872
918.0597, 171.9418
918.5418, 171.6756
919.0239, 170.0183
919.5060, 167.7306
919.9882, 166.3056
920.4703, 167.0943
920.9524, 167.6383
921.4345, 167.4314
921.9166, 166.8773
922.3987, 166.4381
922.8809, 166.1163
923.3630, 165.8013
923.8451, 165.4706
924.3272, 165.1803
924.8093, 165.0523
925.2914, 164.9742
925.7736, 164.7534
926.2557, 164.3121
926.7378, 164.0588
927.2199, 164.4538
927.7020, 164.7463
928.1841, 164.5287
928.6663, 163.8031
929.1484, 162.9721
929.6305, 162.0061
930.1126, 161.4600
930.5947, 162.0893
931.0768, 163.0713
931.5590, 163.3627
932.0411, 163.0626
932.5232, 162.6456
933.0053, 162.0192
933.4874, 161.5994
933.9695, 161.4865
934.4517, 161.6338
934.9338, 162.1093
935.4159, 162.9280
935.8980, 163.0810
936.3801, 162.0987
936.8622, 160.8708
937.3444, 160.4254
937.8265, 160.4512
938.3086, 160.4821
938.7907, 160.3224
939.2728, 160.3169
939.7549, 160.5454
940.2371, 160.9146
940.7192, 161.4557
941.2013, 162.1811
941.6834, 162.4131
942.1655, 162.1051
942.6476, 161.7710
943.1298, 161.8570
943.6119, 162.1353
944.0940, 162.2799
944.5761, 162.2917
945.0582, 162.6763
945.5403, 164.2342
946.0225, 165.3278
946.5046, 165.3139
946.9867, 164.4704
947.4688, 163.8053
947.9509, 163.3370
948.4330, 163.2124
948.9152, 163.5979
949.3973, 164.2121
949.8794, 164.9531
950.3615, 165.6911
950.8436, 166.1976
951.3257, 166.4656
951.8079, 166.3701
952.2900, 165.7680
952.7721, 164.9900
953.2542, 164.3724
953.7363, 163.9215
954.2184, 163.7450
954.7006, 163.8781
955.1827, 163.9941
955.6648, 163.7298
956.1469, 163.3997
956.6290, 163.3155
957.1111, 163.5479
957.5933, 163.6593
958.0754, 163.6137
958.5575, 163.4892
959.0396, 163.3143
959.5217, 163.0934
960.0038, 162.7670
960.4860, 162.3788
960.9681, 162.1557
961.4502, 162.4733
961.9323, 162.7328
962.4144, 162.4656
962.8965, 161.9024
963.3787, 161.5620
963.8608, 161.5012
964.3429, 161.5896
964.8250, 161.8910
965.3071, 162.1446
965.7892, 161.8533
966.2714, 161.2512
966.7535, 160.9250
967.2356, 160.9992
967.7177, 161.1934
968.1998, 161.5502
968.6819, 161.8127
969.1641, 161.7379
969.6462, 161.2921
970.1283, 161.0636
970.6104, 161.0793
971.0925, 161.1435
971.5746, 161.1224
972.0568, 161.0858
972.5389, 161.2798
973.0210, 161.5859
973.5031, 161.6074
973.9852, 160.9449
974.4673, 160.2480
974.9495, 159.6737
975.4316, 159.1948
975.9137, 158.7441
976.3958, 158.3120
976.8779, 158.1674
977.3600, 158.4127
977.8422, 158.7162
978.3243, 158.7533
978.8064, 158.6236
979.2885, 158.3589
979.7706, 157.8515
980.2527, 157.8450
980.7349, 158.9414
981.2170, 159.8861
981.6991, 159.8889
982.1812, 159.1086
982.6633, 158.2703
983.1454, 157.5115
983.6276, 158.3911
984.1097, 164.9704
984.5918, 170.6545
985.0739, 168.9462
985.5560, 162.4380
986.0381, 158.1662
986.5203, 157.4781
987.0024, 157.4183
987.4845, 157.8090
987.9666, 158.3308
988.4487, 158.5150
988.9308, 158.4502
989.4130, 158.4015
989.8951, 158.4223
990.3772, 158.4022
990.8593, 158.1894
991.3414, 157.9830
991.8235, 157.9339
992.3057, 158.0475
992.7878, 158.2600
993.2699, 158.6339
993.7520, 158.7247
994.2341, 157.9399
994.7162, 156.9856
995.1984, 157.3814
995.6805, 158.6302
996.1626, 159.3648
996.6447, 158.4635
997.1268, 157.7799
997.6089, 157.8769
998.0911, 158.2502
998.5732, 158.0816
999.0553, 157.3794
999.5374, 157.3123
1000.020, 158.1005
1000.502, 158.8307
1000.984, 158.4935
1001.466, 157.7910
1001.948, 157.4001
1002.430, 157.4286
1002.912, 157.4517
1003.394, 157.4803
1003.876, 157.4126
1004.359, 157.1868
1004.841, 156.8478
1005.323, 156.4362
1005.805, 156.0156
1006.287, 155.8610
1006.769, 156.2347
1007.251, 156.7188
1007.733, 157.1486
1008.216, 157.5349
1008.698, 157.9126
1009.180, 158.3522
1009.662, 158.4872
1010.144, 158.2562
1010.626, 157.9300
1011.108, 157.5845
1011.590, 157.4141
1012.072, 157.9532
1012.555, 159.1700
1013.037, 159.8963
1013.519, 159.2663
1014.001, 158.5775
1014.483, 158.1170
1014.965, 157.9567
1015.447, 158.4960
1015.929, 159.6611
1016.411, 160.6832
1016.894, 161.3941
1017.376, 161.6848
1017.858, 160.9385
1018.340, 159.9510
1018.822, 159.8143
1019.304, 161.3462
1019.786, 161.8432
1020.268, 160.9070
1020.751, 159.9997
1021.233, 160.4661
1021.715, 161.7791
1022.197, 162.5968
1022.679, 162.9375
1023.161, 163.0627
1023.643, 162.8551
1024.125, 162.7274
1024.607, 162.7537
1025.090, 163.0010
1025.572, 163.7518
1026.054, 165.0640
1026.536, 166.0284
1027.018, 166.4278
1027.500, 166.7099
1027.982, 167.4748
1028.464, 168.3227
1028.947, 168.7457
1029.429, 168.5632
1029.911, 168.4753
1030.393, 168.5600
1030.875, 168.6965
1031.357, 168.7646
1031.839, 168.8635
1032.321, 169.4677
1032.803, 170.4450
1033.286, 171.2520
1033.768, 171.3406
1034.250, 171.5107
1034.732, 172.1798
1035.214, 173.1200
1035.696, 174.0034
1036.178, 174.8435
1036.660, 175.6021
1037.143, 176.2994
1037.625, 176.7972
1038.107, 176.7161
1038.589, 176.5294
1039.071, 177.0032
1039.553, 178.1228
1040.035, 178.7333
1040.517, 178.0799
1041.000, 177.7141
1041.482, 178.2245
1041.964, 179.1252
1042.446, 179.0267
1042.928, 178.2357
1043.410, 178.0913
1043.892, 179.2458
1044.374, 180.3374
1044.856, 180.5038
1045.339, 180.2359
1045.821, 179.9465
1046.303, 179.6336
1046.785, 179.4285
1047.267, 179.3381
1047.749, 179.3006
1048.231, 179.2551
1048.713, 179.2544
1049.195, 179.5541
1049.677, 179.9620
1050.160, 179.9237
1050.642, 178.5898
1051.124, 177.7960
1051.606, 177.8914
1052.088, 178.3648
1052.570, 178.6715
1053.052, 178.7768
1053.534, 178.4533
1054.017, 177.6635
1054.499, 176.8245
1054.981, 176.0290
1055.463, 175.4209
1055.945, 175.2093
1056.427, 175.2942
1056.909, 175.0943
1057.391, 174.5778
1057.874, 174.1878
1058.356, 174.1619
1058.838, 174.1486
1059.320, 173.4997
1059.802, 172.6774
1060.284, 172.3858
1060.766, 173.2543
1061.248, 173.4513
1061.730, 172.5987
1062.213, 171.7020
1062.695, 171.5239
1063.177, 171.8766
1063.659, 172.1816
1064.141, 172.4118
1064.623, 172.4443
1065.105, 172.0021
1065.587, 171.5899
1066.070, 171.3809
1066.552, 171.3261
1067.034, 171.4556
1067.516, 171.7854
1067.998, 171.7177
1068.480, 171.1549
1068.962, 170.4877
1069.444, 169.8435
1069.927, 169.4281
1070.409, 169.5773
1070.891, 170.2988
1071.373, 170.6013
1071.855, 170.2498
1072.337, 170.0987
1072.819, 170.5143
1073.301, 171.1136
1073.783, 171.0963
1074.266, 170.7612
1074.748, 170.7766
1075.230, 171.4987
1075.712, 172.0737
1076.194, 172.2064
1076.676, 172.2161
1077.158, 172.3423
1077.640, 172.5397
1078.122, 172.2679
1078.604, 171.5784
1079.087, 170.9112
1079.569, 170.2653
1080.051, 169.9792
1080.533, 170.4005
1081.015, 171.2885
1081.497, 172.3002
1081.979, 173.6370
1082.461, 173.9197
1082.944, 172.9207
1083.426, 171.7256
1083.908, 171.3390
1084.390, 171.3755
1084.872, 171.3704
1085.354, 171.3159
1085.836, 171.5286
1086.318, 172.3130
1086.801, 172.8549
1087.283, 172.8973
1087.765, 172.7056
1088.247, 172.7912
1088.729, 173.0361
1089.211, 173.0635
1089.693, 172.7016
1090.175, 172.6124
1090.657, 173.7688
1091.140, 174.5471
1091.622, 173.7720
1092.104, 171.7655
1092.586, 171.3839
1093.068, 172.4842
1093.550, 173.3462
1094.032, 173.0582
1094.514, 172.4949
1094.997, 172.2219
1095.479, 172.0888
1095.961, 171.8587
1096.443, 171.3970
1096.925, 171.3354
1097.407, 171.7405
1097.889, 172.1259
1098.371, 172.0431
1098.854, 171.7663
1099.336, 171.5912
1099.818, 171.5220
1100.300, 171.5429
1100.782, 171.7675
1101.264, 171.8619
1101.746, 171.7359
1102.228, 171.5652
1102.710, 171.6299
1103.193, 171.8267
1103.675, 171.9728
1104.157, 172.0446
1104.639, 171.7937
1105.121, 170.5558
1105.603, 169.6259
1106.085, 169.5735
1106.567, 170.1207
1107.049, 170.4650
1107.531, 170.6229
1108.014, 170.7204
1108.496, 170.8415
1108.978, 170.7370
1109.460, 169.9483
1109.942, 169.0632
1110.424, 168.6390
1110.906, 168.6955
1111.388, 168.6290
1111.871, 168.4291
1112.353, 168.2527
1112.835, 168.1863
1113.317, 168.1736
1113.799, 168.2130
1114.281, 168.2477
1114.763, 168.1804
1115.245, 168.0020
1115.728, 167.6913
1116.210, 167.2031
1116.692, 166.7454
1117.174, 166.4118
1117.656, 166.2710
1118.138, 166.5495
1118.620, 167.1555
1119.102, 167.7077
1119.584, 168.4671
1120.067, 168.5143
1120.549, 167.4284
1121.031, 166.0265
1121.513, 165.3922
1121.995, 165.3643
1122.477, 165.4763
1122.959, 165.6733
1123.441, 165.7847
1123.924, 165.5720
1124.406, 165.4316
1124.888, 165.6548
1125.370, 166.0137
1125.852, 165.7407
1126.334, 164.9137
1126.816, 164.4720
1127.298, 164.7146
1127.781, 164.9782
1128.263, 164.6995
1128.745, 164.2947
1129.227, 164.0787
1129.709, 164.0538
1130.191, 164.2092
1130.673, 164.5575
1131.155, 164.9058
1131.637, 165.1696
1132.120, 165.4140
1132.602, 165.8880
1133.084, 166.3057
1133.566, 166.1820
1134.048, 165.1835
1134.530, 164.6348
1135.012, 164.5966
1135.494, 164.7582
1135.976, 165.0559
1136.458, 165.3354
1136.941, 165.2491
1137.423, 164.9497
1137.905, 164.8087
1138.387, 165.3291
1138.869, 165.3286
1139.351, 164.5338
1139.833, 163.6813
1140.315, 163.5823
1140.798, 163.9561
1141.280, 164.2250
1141.762, 164.3471
1142.244, 164.2534
1142.726, 163.4816
1143.208, 163.0882
1143.690, 163.4105
1144.172, 164.0649
1144.655, 164.5956
1145.137, 164.9574
1145.619, 164.9213
1146.101, 164.4554
1146.583, 164.0132
1147.065, 163.5716
1147.547, 163.5577
1148.029, 164.4513
1148.511, 165.7432
1148.994, 165.7510
1149.476, 164.6498
1149.958, 164.0863
1150.440, 164.5392
1150.922, 165.0399
1151.404, 164.8987
1151.886, 164.5144
1152.368, 164.1148
1152.851, 163.7283
1153.333, 163.6096
1153.815, 163.7578
1154.297, 163.9238
1154.779, 163.9773
1155.261, 164.0935
1155.743, 164.5580
1156.225, 165.0975
1156.708, 165.4124
1157.190, 165.5145
1157.672, 165.2289
1158.154, 164.5043
1158.636, 163.8450
1159.118, 163.5982
1159.600, 163.4989
1160.082, 163.1761
1160.564, 162.8205
1161.047, 162.7907
1161.529, 163.3460
1162.011, 163.8072
1162.493, 164.2806
1162.975, 164.2186
1163.457, 162.4730
1163.939, 160.4328
1164.421, 160.4729
1164.903, 161.8930
1165.385, 162.4800
1165.868, 160.7752
1166.350, 160.1646
1166.832, 161.2586
1167.314, 162.4776
1167.796, 161.7399
1168.278, 160.1883
1168.760, 160.0417
1169.242, 161.1672
1169.725, 161.8932
1170.207, 161.6020
1170.689, 160.9836
1171.171, 160.0262
1171.653, 159.0047
1172.135, 158.1575
1172.617, 157.5932
1173.099, 157.7890
1173.582, 158.7667
1174.064, 159.2053
1174.546, 158.0203
1175.028, 156.9991
1175.510, 156.6602
1175.992, 156.6587
1176.474, 156.2413
1176.956, 155.5985
1177.438, 155.3655
1177.921, 155.7199
1178.403, 155.9365
1178.885, 155.7170
1179.367, 155.2593
1179.849, 154.5047
1180.331, 153.6644
1180.813, 153.6119
1181.295, 154.0871
1181.778, 154.0331
1182.260, 152.9711
1182.742, 152.0562
1183.224, 151.9399
1183.706, 151.9957
1184.188, 151.8947
1184.670, 151.6643
1185.152, 151.3883
1185.635, 151.1087
1186.117, 151.0939
1186.599, 151.7932
1187.081, 152.0422
1187.563, 150.7131
1188.045, 149.1804
1188.527, 148.5126
1189.009, 148.6383
1189.491, 148.4982
1189.974, 148.1527
1190.456, 148.0554
1190.938, 148.8727
1191.420, 149.3950
1191.902, 148.6955
1192.384, 147.6414
1192.866, 147.0943
1193.348, 147.0647
1193.830, 146.9150
1194.313, 146.6633
1194.795, 146.5706
1195.277, 147.1206
1195.759, 147.5051
1196.241, 147.0961
1196.723, 146.3714
1197.205, 145.8971
1197.687, 145.6753
1198.169, 145.8400
1198.652, 146.3674
1199.134, 146.4209
1199.616, 144.8712
1200.098, 143.2760
1200.580, 142.5229
1201.062, 142.3690
1201.544, 142.4650
1202.026, 142.8213
1202.509, 143.1047
1202.991, 143.2877
1203.473, 143.1643
1203.955, 142.3037
1204.437, 141.3629
1204.919, 140.6337
1205.401, 140.1741
1205.883, 140.2296
1206.365, 140.8165
1206.848, 141.0154
1207.330, 140.6885
1207.812, 140.2608
1208.294, 140.0772
1208.776, 139.8875
1209.258, 139.4567
1209.740, 138.8900
1210.222, 138.5317
1210.705, 138.3820
1211.187, 137.9979
1211.669, 137.2430
1212.151, 136.7806
1212.633, 137.5238
1213.115, 138.4291
1213.597, 138.7032
1214.079, 138.4880
1214.562, 138.1793
1215.044, 137.7872
1215.526, 137.8522
1216.008, 138.6110
1216.490, 139.2134
1216.972, 138.7223
1217.454, 138.0425
1217.936, 137.8652
1218.418, 138.1089
1218.901, 138.4683
1219.383, 138.9235
1219.865, 138.8928
1220.347, 138.0140
1220.829, 137.4102
1221.311, 138.3049
1221.793, 139.4696
1222.275, 139.9774
1222.757, 139.9087
1223.240, 139.9013
1223.722, 139.9532
1224.204, 140.0853
1224.686, 140.4631
1225.168, 140.4543
1225.650, 138.8563
1226.132, 137.4250
1226.614, 137.6551
1227.096, 139.3051
1227.579, 140.2715
1228.061, 140.5865
1228.543, 140.4608
1229.025, 139.7058
1229.507, 139.1656
1229.989, 139.5793
1230.471, 140.1999
1230.953, 140.4503
1231.436, 140.3675
1231.918, 140.2133
1232.400, 140.0194
1232.882, 140.0379
1233.364, 140.6037
1233.846, 140.9621
1234.328, 140.6212
1234.810, 140.0289
1235.292, 139.3691
1235.775, 138.7216
1236.257, 138.8572
1236.739, 139.6326
1237.221, 140.2850
1237.703, 140.5012
1238.185, 140.5113
1238.667, 140.3034
1239.149, 140.0094
1239.632, 139.7228
1240.114, 139.4305
1240.596, 138.9956
1241.078, 138.4512
1241.560, 137.9164
1242.042, 137.1754
1242.524, 136.8920
1243.006, 137.5381
1243.489, 138.2519
1243.971, 138.2968
1244.453, 137.8466
1244.935, 137.6204
1245.417, 137.5522
1245.899, 137.4017
1246.381, 137.1120
1246.863, 136.6214
1247.345, 135.7875
1247.828, 135.0403
1248.310, 134.8825
1248.792, 135.0632
1249.274, 134.8614
1249.756, 134.3888
1250.238, 134.0520
1250.720, 134.2297
1251.202, 134.1739
1251.684, 133.7621
1252.167, 133.2755
1252.649, 132.9247
1253.131, 132.6818
1253.613, 132.5559
1254.095, 132.4882
1254.577, 132.2970
1255.059, 131.7162
1255.541, 131.4668
1256.023, 131.6820
1256.506, 131.9003
1256.988, 131.5779
1257.470, 131.1082
1257.952, 131.1746
1258.434, 131.5650
1258.916, 131.5853
1259.398, 131.0317
1259.880, 130.4936
1260.363, 129.9932
1260.845, 129.5856
1261.327, 129.3255
1261.809, 129.1758
1262.291, 129.2639
1262.773, 129.3962
1263.255, 129.0173
1263.737, 127.9075
1264.219, 127.3888
1264.702, 127.5929
1265.184, 127.7355
1265.666, 127.0281
1266.148, 126.1951
1266.630, 125.7660
1267.112, 125.6402
1267.594, 125.5615
1268.076, 125.5302
1268.559, 125.5717
1269.041, 125.6867
1269.523, 125.7593
1270.005, 125.8427
1270.487, 125.7171
1270.969, 124.9731
1271.451, 124.1066
1271.933, 123.8530
1272.416, 124.1592
1272.898, 124.4229
1273.380, 124.5792
1273.862, 124.3669
1274.344, 123.0757
1274.826, 122.1160
1275.308, 122.1933
1275.790, 122.5556
1276.272, 122.0896
1276.755, 121.1086
1277.237, 120.9270
1277.719, 121.4951
1278.201, 121.8992
1278.683, 121.5390
1279.165, 121.2689
1279.647, 121.3370
1280.129, 121.3699
1280.611, 120.7998
1281.094, 119.9421
1281.576, 119.5853
1282.058, 119.6138
1282.540, 119.2690
1283.022, 117.8572
1283.504, 117.0657
1283.986, 117.1803
1284.468, 117.5176
1284.950, 117.4039
1285.433, 117.0986
1285.915, 116.9314
1286.397, 116.8783
1286.879, 116.8053
1287.361, 116.7513
1287.843, 116.4625
1288.325, 115.8887
1288.807, 115.3306
1289.290, 115.0752
1289.772, 114.9229
1290.254, 114.7707
1290.736, 114.5648
1291.218, 114.1934
1291.700, 113.6404
1292.182, 113.1149
1292.664, 112.6308
1293.146, 112.2349
1293.629, 111.8323
1294.111, 111.6686
1294.593, 112.1461
1295.075, 112.7721
1295.557, 113.0226
1296.039, 112.8906
1296.521, 112.0511
1297.003, 110.6158
1297.486, 109.6608
1297.968, 110.2952
1298.450, 110.8083
1298.932, 110.8137
1299.414, 110.4793
1299.896, 109.7973
1300.378, 108.9738
1300.860, 108.6466
1301.343, 108.7458
1301.825, 108.8137
##END=



