##NAMES=Malayaite
##RRUFFID=R080024
##IDEAL CHEMISTRY=CaSn^4+^O(SiO_4_)
##LOCALITY=Ash Mountain, McDame, British Columbia, Canada
##OWNER=RRUFF
##SOURCE=Mark N. Feinglos, William P. Pinch
##DESCRIPTION=Tan colored tabular crystals with a subconchoidal  fracture on a broken surface.
##STATUS=The identification of this mineral is confirmed by single-crystal X-ray diffraction and chemical analysis.
##URL=rruff.info/R080024
##MEASURED CHEMISTRY=Ca_1.01_(Sn_1.01_Ti_0.01_)Si_0.98_O_5_; = bright part. (Ca_1.01_Fe_0.01_)(Sn_0.96_Ti_0.05_)Si_0.98_O_5_ = dark part
94.51007, 0.0000000E+00
94.99219, 1314.662
95.47430, 1319.960
95.95642, 1325.063
96.43854, 1329.877
96.92065, 1335.303
97.40277, 1338.428
97.88489, 1342.282
98.36700, 1343.206
98.84912, 1340.947
99.33124, 1336.505
99.81335, 1330.133
100.2955, 1322.182
100.7776, 1314.429
101.2597, 1310.428
101.7418, 1308.379
102.2239, 1305.749
102.7061, 1301.147
103.1882, 1295.594
103.6703, 1291.322
104.1524, 1288.870
104.6345, 1288.354
105.1166, 1289.505
105.5988, 1292.723
106.0809, 1296.535
106.5630, 1299.481
107.0451, 1301.320
107.5272, 1303.575
108.0093, 1307.236
108.4915, 1311.412
108.9736, 1314.802
109.4557, 1316.318
109.9378, 1317.511
110.4199, 1322.964
110.9020, 1335.783
111.3842, 1348.902
111.8663, 1360.402
112.3484, 1370.930
112.8305, 1381.219
113.3126, 1391.477
113.7947, 1401.671
114.2769, 1415.465
114.7590, 1438.514
115.2411, 1459.640
115.7232, 1475.639
116.2053, 1486.184
116.6874, 1491.815
117.1696, 1492.391
117.6517, 1485.825
118.1338, 1483.337
118.6159, 1486.736
119.0980, 1492.850
119.5801, 1498.999
120.0623, 1504.546
120.5444, 1510.730
121.0265, 1519.171
121.5086, 1529.545
121.9907, 1542.382
122.4728, 1559.816
122.9550, 1579.945
123.4371, 1597.598
123.9192, 1609.862
124.4013, 1621.227
124.8834, 1636.461
125.3655, 1655.702
125.8476, 1676.336
126.3298, 1696.011
126.8119, 1714.379
127.2940, 1734.524
127.7761, 1757.834
128.2582, 1782.915
128.7404, 1808.719
129.2225, 1835.008
129.7046, 1863.270
130.1867, 1896.265
130.6688, 1934.862
131.1509, 1977.480
131.6331, 2018.002
132.1152, 2063.891
132.5973, 2120.828
133.0794, 2191.098
133.5615, 2276.146
134.0436, 2381.187
134.5258, 2547.587
135.0079, 2689.992
135.4900, 2818.634
135.9721, 2914.553
136.4542, 2944.947
136.9363, 2883.997
137.4185, 2735.613
137.9006, 2583.916
138.3827, 2407.133
138.8648, 2245.800
139.3469, 2117.822
139.8290, 2023.270
140.3112, 1953.066
140.7933, 1904.221
141.2754, 1877.421
141.7575, 1859.985
142.2396, 1853.837
142.7217, 1855.631
143.2039, 1863.045
143.6860, 1876.607
144.1681, 1892.815
144.6502, 1908.739
145.1323, 1924.899
145.6144, 1943.157
146.0966, 1963.603
146.5787, 1986.540
147.0608, 2013.868
147.5429, 2049.037
148.0250, 2083.870
148.5071, 2112.245
148.9893, 2136.108
149.4714, 2161.293
149.9535, 2192.428
150.4356, 2229.874
150.9177, 2268.439
151.3998, 2308.836
151.8820, 2349.645
152.3641, 2390.174
152.8462, 2430.628
153.3283, 2471.859
153.8104, 2515.165
154.2925, 2560.534
154.7747, 2607.737
155.2568, 2657.942
155.7389, 2708.860
156.2210, 2757.902
156.7031, 2804.906
157.1852, 2852.857
157.6673, 2906.577
158.1495, 2971.186
158.6316, 3032.844
159.1137, 3089.360
159.5958, 3144.162
160.0779, 3200.345
160.5600, 3259.197
161.0422, 3320.264
161.5243, 3383.196
162.0064, 3448.378
162.4885, 3514.203
162.9706, 3580.583
163.4527, 3647.357
163.9349, 3713.756
164.4170, 3778.813
164.8991, 3844.572
165.3812, 3915.518
165.8633, 3993.175
166.3454, 4071.678
166.8276, 4149.683
167.3097, 4226.595
167.7918, 4299.910
168.2739, 4364.248
168.7560, 4427.198
169.2381, 4497.731
169.7203, 4577.664
170.2024, 4661.377
170.6845, 4745.936
171.1666, 4832.246
171.6487, 4912.018
172.1308, 4980.118
172.6130, 5041.157
173.0951, 5098.790
173.5772, 5154.632
174.0593, 5204.594
174.5414, 5242.408
175.0235, 5268.692
175.5057, 5278.825
175.9878, 5267.304
176.4699, 5244.729
176.9520, 5220.007
177.4341, 5197.094
177.9162, 5175.149
178.3984, 5151.116
178.8805, 5121.700
179.3626, 5094.424
179.8447, 5071.768
180.3268, 5051.169
180.8089, 5029.447
181.2911, 5004.974
181.7732, 4977.966
182.2553, 4949.081
182.7374, 4922.061
183.2195, 4889.058
183.7016, 4847.537
184.1838, 4798.983
184.6659, 4746.185
185.1480, 4690.642
185.6301, 4630.608
186.1122, 4568.805
186.5943, 4499.641
187.0765, 4428.498
187.5586, 4353.339
188.0407, 4276.632
188.5228, 4205.645
189.0049, 4146.547
189.4870, 4098.153
189.9692, 4047.204
190.4513, 3991.834
190.9334, 3935.616
191.4155, 3880.387
191.8976, 3826.381
192.3797, 3772.973
192.8619, 3719.031
193.3440, 3665.963
193.8261, 3617.551
194.3082, 3578.109
194.7903, 3541.071
195.2724, 3498.991
195.7546, 3451.069
196.2367, 3404.036
196.7188, 3363.351
197.2009, 3326.119
197.6830, 3288.815
198.1651, 3250.168
198.6473, 3211.110
199.1294, 3172.913
199.6115, 3135.696
200.0936, 3099.295
200.5757, 3063.387
201.0578, 3028.090
201.5400, 2993.378
202.0221, 2959.310
202.5042, 2925.969
202.9863, 2892.939
203.4684, 2859.499
203.9505, 2828.096
204.4327, 2801.090
204.9148, 2775.821
205.3969, 2748.137
205.8790, 2714.898
206.3611, 2677.882
206.8432, 2645.535
207.3254, 2621.363
207.8075, 2598.171
208.2896, 2574.225
208.7717, 2550.240
209.2538, 2527.284
209.7359, 2506.224
210.2181, 2486.825
210.7002, 2467.671
211.1823, 2448.896
211.6644, 2430.250
212.1465, 2411.061
212.6286, 2392.022
213.1108, 2374.454
213.5929, 2359.371
214.0750, 2346.514
214.5571, 2332.522
215.0392, 2314.233
215.5213, 2298.127
216.0035, 2286.659
216.4856, 2278.888
216.9677, 2272.761
217.4498, 2266.940
217.9319, 2261.520
218.4140, 2257.336
218.8962, 2253.706
219.3783, 2251.672
219.8604, 2252.513
220.3425, 2255.469
220.8246, 2258.403
221.3067, 2260.096
221.7889, 2260.520
222.2710, 2260.094
222.7531, 2262.131
223.2352, 2260.444
223.7173, 2251.296
224.1994, 2235.381
224.6816, 2215.626
225.1637, 2191.907
225.6458, 2166.269
226.1279, 2145.865
226.6100, 2132.801
227.0921, 2122.714
227.5743, 2112.185
228.0564, 2101.571
228.5385, 2094.334
229.0206, 2093.560
229.5027, 2097.280
229.9848, 2100.643
230.4670, 2103.588
230.9491, 2105.875
231.4312, 2106.510
231.9133, 2105.474
232.3954, 2105.963
232.8775, 2110.236
233.3597, 2116.659
233.8418, 2122.843
234.3239, 2128.040
234.8060, 2134.019
235.2881, 2143.277
235.7702, 2156.211
236.2524, 2168.765
236.7345, 2179.909
237.2166, 2189.565
237.6987, 2196.680
238.1808, 2200.448
238.6629, 2204.352
239.1451, 2212.831
239.6272, 2226.555
240.1093, 2241.291
240.5914, 2256.368
241.0735, 2271.630
241.5556, 2286.742
242.0378, 2301.677
242.5199, 2316.860
243.0020, 2333.719
243.4841, 2353.272
243.9662, 2370.213
244.4483, 2379.204
244.9305, 2388.178
245.4126, 2402.927
245.8947, 2424.537
246.3768, 2449.115
246.8589, 2471.566
247.3410, 2491.317
247.8232, 2510.593
248.3053, 2529.714
248.7874, 2548.507
249.2695, 2567.021
249.7516, 2585.208
250.2337, 2602.801
250.7159, 2619.642
251.1980, 2636.267
251.6801, 2650.542
252.1622, 2662.116
252.6443, 2671.981
253.1264, 2681.401
253.6086, 2690.153
254.0907, 2696.393
254.5728, 2697.149
255.0549, 2689.596
255.5370, 2685.169
256.0191, 2688.669
256.5013, 2690.880
256.9834, 2685.569
257.4655, 2673.080
257.9476, 2658.727
258.4297, 2648.272
258.9118, 2642.545
259.3940, 2637.378
259.8761, 2630.655
260.3582, 2626.082
260.8403, 2625.512
261.3224, 2628.965
261.8045, 2635.543
262.2867, 2644.660
262.7688, 2656.645
263.2509, 2669.003
263.7330, 2681.834
264.2151, 2694.763
264.6972, 2706.498
265.1794, 2717.852
265.6615, 2731.619
266.1436, 2750.124
266.6257, 2773.633
267.1078, 2798.156
267.5899, 2822.711
268.0721, 2849.198
268.5542, 2878.778
269.0363, 2911.019
269.5184, 2944.790
270.0005, 2978.989
270.4826, 3013.902
270.9648, 3051.846
271.4469, 3094.188
271.9290, 3137.342
272.4111, 3179.391
272.8932, 3221.070
273.3753, 3264.796
273.8575, 3312.007
274.3396, 3361.999
274.8217, 3411.298
275.3038, 3458.582
275.7859, 3506.731
276.2680, 3556.975
276.7502, 3608.605
277.2323, 3660.455
277.7144, 3711.727
278.1965, 3763.221
278.6786, 3818.102
279.1607, 3878.646
279.6429, 3937.373
280.1250, 3991.023
280.6071, 4041.925
281.0892, 4093.642
281.5713, 4147.619
282.0534, 4203.505
282.5356, 4261.603
283.0177, 4323.017
283.4998, 4382.548
283.9819, 4438.195
284.4640, 4491.185
284.9461, 4543.469
285.4283, 4595.644
285.9104, 4646.722
286.3925, 4695.163
286.8746, 4740.897
287.3567, 4786.196
287.8388, 4833.082
288.3210, 4879.407
288.8031, 4922.374
289.2852, 4961.855
289.7673, 4997.831
290.2494, 5031.329
290.7315, 5062.330
291.2137, 5083.571
291.6958, 5091.743
292.1779, 5090.901
292.6600, 5085.073
293.1421, 5074.682
293.6242, 5058.812
294.1064, 5036.081
294.5885, 5006.590
295.0706, 4973.162
295.5527, 4934.381
296.0348, 4892.852
296.5169, 4851.263
296.9991, 4809.630
297.4812, 4764.541
297.9633, 4710.784
298.4454, 4652.903
298.9275, 4604.292
299.4096, 4568.077
299.8918, 4538.146
300.3739, 4510.787
300.8560, 4486.065
301.3381, 4465.013
301.8202, 4448.594
302.3023, 4436.017
302.7845, 4424.702
303.2666, 4415.036
303.7487, 4405.897
304.2308, 4396.503
304.7129, 4387.146
305.1950, 4378.633
305.6772, 4370.974
306.1593, 4364.767
306.6414, 4360.978
307.1235, 4359.704
307.6056, 4358.960
308.0877, 4354.508
308.5699, 4350.139
309.0520, 4355.479
309.5341, 4374.177
310.0162, 4398.858
310.4983, 4418.976
310.9804, 4435.721
311.4626, 4461.935
311.9447, 4503.893
312.4268, 4556.963
312.9089, 4614.382
313.3910, 4675.612
313.8731, 4742.268
314.3553, 4816.923
314.8374, 4898.542
315.3195, 4986.022
315.8016, 5077.342
316.2837, 5175.658
316.7658, 5283.871
317.2480, 5402.040
317.7301, 5528.967
318.2122, 5665.795
318.6943, 5812.043
319.1764, 5964.195
319.6585, 6126.080
320.1407, 6288.778
320.6228, 6451.875
321.1049, 6612.942
321.5870, 6757.851
322.0691, 6885.577
322.5512, 6985.643
323.0334, 7051.552
323.5155, 7087.586
323.9976, 7079.438
324.4797, 7013.302
324.9618, 6895.741
325.4439, 6744.207
325.9261, 6556.368
326.4082, 6347.738
326.8903, 6129.729
327.3724, 5903.294
327.8545, 5684.200
328.3366, 5472.527
328.8188, 5274.260
329.3009, 5098.740
329.7830, 4947.781
330.2651, 4816.651
330.7472, 4704.039
331.2293, 4608.523
331.7115, 4526.200
332.1936, 4457.701
332.6757, 4401.407
333.1578, 4355.184
333.6399, 4318.891
334.1220, 4294.522
334.6042, 4283.629
335.0863, 4287.104
335.5684, 4301.706
336.0505, 4329.552
336.5326, 4366.341
337.0147, 4409.519
337.4969, 4459.364
337.9790, 4517.078
338.4611, 4583.270
338.9432, 4658.120
339.4253, 4742.111
339.9074, 4834.829
340.3896, 4934.402
340.8717, 5040.294
341.3538, 5152.503
341.8359, 5272.260
342.3180, 5401.353
342.8001, 5534.690
343.2823, 5665.689
343.7644, 5793.358
344.2465, 5926.011
344.7286, 6065.882
345.2107, 6211.167
345.6928, 6360.725
346.1750, 6514.943
346.6571, 6670.896
347.1392, 6825.521
347.6213, 6979.159
348.1034, 7132.492
348.5855, 7279.438
349.0677, 7431.874
349.5498, 7599.139
350.0319, 7780.415
350.5140, 7968.434
350.9961, 8160.182
351.4782, 8356.077
351.9604, 8555.824
352.4425, 8757.903
352.9246, 8965.381
353.4067, 9181.847
353.8888, 9405.035
354.3709, 9629.769
354.8531, 9854.224
355.3352, 10079.67
355.8173, 10308.23
356.2994, 10542.18
356.7815, 10777.11
357.2636, 11015.49
357.7458, 11253.22
358.2279, 11488.90
358.7100, 11721.01
359.1921, 11946.14
359.6742, 12159.51
360.1563, 12362.40
360.6385, 12538.77
361.1206, 12696.80
361.6027, 12824.40
362.0848, 12922.07
362.5669, 12984.56
363.0490, 13002.34
363.5312, 12970.38
364.0133, 12887.10
364.4954, 12733.89
364.9775, 12490.57
365.4596, 12207.25
365.9417, 11876.15
366.4239, 11516.18
366.9060, 11148.63
367.3881, 10780.60
367.8702, 10415.17
368.3523, 10055.94
368.8344, 9688.075
369.3166, 9355.144
369.7987, 9066.846
370.2808, 8802.130
370.7629, 8546.873
371.2450, 8298.220
371.7271, 8059.066
372.2093, 7834.017
372.6914, 7621.630
373.1735, 7424.106
373.6556, 7248.695
374.1377, 7080.397
374.6198, 6914.168
375.1020, 6750.963
375.5841, 6597.216
376.0662, 6457.277
376.5483, 6328.714
377.0304, 6202.698
377.5125, 6077.597
377.9947, 5958.340
378.4768, 5849.394
378.9589, 5745.154
379.4410, 5638.993
379.9231, 5528.935
380.4052, 5420.381
380.8874, 5321.858
381.3695, 5236.802
381.8516, 5151.418
382.3337, 5063.972
382.8158, 4976.429
383.2979, 4888.616
383.7801, 4801.284
384.2622, 4716.586
384.7443, 4635.964
385.2264, 4559.698
385.7085, 4487.486
386.1906, 4421.192
386.6728, 4356.511
387.1549, 4289.540
387.6370, 4223.417
388.1191, 4163.702
388.6012, 4113.024
389.0833, 4068.628
389.5655, 4026.443
390.0476, 3986.700
390.5297, 3948.165
391.0118, 3910.392
391.4939, 3873.564
391.9760, 3837.057
392.4582, 3800.708
392.9403, 3768.248
393.4224, 3744.803
393.9045, 3728.803
394.3866, 3710.111
394.8687, 3685.186
395.3509, 3660.982
395.8330, 3643.382
396.3151, 3631.007
396.7972, 3619.778
397.2793, 3608.859
397.7614, 3597.923
398.2436, 3586.026
398.7257, 3573.116
399.2078, 3560.978
399.6899, 3550.895
400.1720, 3542.397
400.6541, 3534.263
401.1363, 3526.875
401.6184, 3519.145
402.1005, 3508.982
402.5826, 3497.914
403.0647, 3490.954
403.5468, 3490.674
404.0290, 3492.177
404.5111, 3488.135
404.9932, 3478.312
405.4753, 3467.990
405.9574, 3455.899
406.4395, 3445.086
406.9217, 3439.602
407.4038, 3439.305
407.8859, 3439.550
408.3680, 3436.906
408.8501, 3431.493
409.3322, 3425.732
409.8144, 3419.910
410.2965, 3413.449
410.7786, 3405.287
411.2607, 3396.503
411.7428, 3388.593
412.2249, 3382.187
412.7071, 3377.587
413.1892, 3375.654
413.6713, 3379.999
414.1534, 3380.420
414.6355, 3375.206
415.1176, 3367.537
415.5998, 3359.068
416.0819, 3350.309
416.5640, 3341.571
417.0461, 3333.113
417.5282, 3324.945
418.0103, 3317.040
418.4925, 3308.403
418.9746, 3301.175
419.4567, 3297.980
419.9388, 3295.822
420.4209, 3289.619
420.9030, 3277.034
421.3852, 3262.373
421.8673, 3254.860
422.3494, 3257.086
422.8315, 3259.902
423.3136, 3263.919
423.7957, 3267.071
424.2779, 3268.124
424.7600, 3267.033
425.2421, 3264.396
425.7242, 3259.665
426.2063, 3253.315
426.6884, 3250.151
427.1706, 3250.729
427.6527, 3253.810
428.1348, 3259.596
428.6169, 3267.006
429.0990, 3275.256
429.5811, 3285.240
430.0633, 3293.083
430.5454, 3291.036
431.0275, 3278.781
431.5096, 3272.529
431.9917, 3278.288
432.4738, 3290.909
432.9560, 3305.282
433.4381, 3321.373
433.9202, 3336.257
434.4023, 3346.968
434.8844, 3355.995
435.3665, 3368.497
435.8487, 3385.439
436.3308, 3401.161
436.8129, 3410.029
437.2950, 3414.159
437.7771, 3422.745
438.2592, 3440.009
438.7414, 3457.536
439.2235, 3471.281
439.7056, 3481.789
440.1877, 3489.964
440.6698, 3495.887
441.1519, 3500.821
441.6341, 3507.441
442.1162, 3518.066
442.5983, 3523.042
443.0804, 3520.641
443.5625, 3513.419
444.0446, 3501.997
444.5268, 3487.247
445.0089, 3471.548
445.4910, 3457.052
445.9731, 3443.148
446.4552, 3423.655
446.9373, 3393.686
447.4195, 3363.559
447.9016, 3333.542
448.3837, 3304.606
448.8658, 3277.766
449.3479, 3253.388
449.8300, 3231.250
450.3122, 3211.623
450.7943, 3195.368
451.2764, 3178.386
451.7585, 3161.577
452.2406, 3143.104
452.7227, 3120.191
453.2049, 3095.079
453.6870, 3072.708
454.1691, 3056.331
454.6512, 3044.110
455.1333, 3030.733
455.6154, 3015.147
456.0976, 3001.639
456.5797, 2992.704
457.0618, 2985.736
457.5439, 2979.403
458.0260, 2973.529
458.5081, 2966.587
458.9903, 2955.719
459.4724, 2942.658
459.9545, 2934.039
460.4366, 2931.544
460.9187, 2930.735
461.4008, 2927.944
461.8830, 2924.277
462.3651, 2922.660
462.8472, 2925.467
463.3293, 2928.503
463.8114, 2927.685
464.2935, 2924.239
464.7756, 2922.960
465.2578, 2926.083
465.7399, 2930.910
466.2220, 2932.760
466.7041, 2930.942
467.1862, 2929.281
467.6683, 2928.248
468.1505, 2927.467
468.6326, 2925.677
469.1147, 2923.473
469.5968, 2923.961
470.0789, 2929.834
470.5610, 2939.917
471.0432, 2946.264
471.5253, 2944.239
472.0074, 2944.158
472.4895, 2947.355
472.9716, 2952.879
473.4537, 2960.016
473.9359, 2968.450
474.4180, 2977.899
474.9001, 2988.238
475.3822, 2999.630
475.8643, 3010.171
476.3464, 3019.981
476.8286, 3028.665
477.3107, 3033.293
477.7928, 3037.345
478.2749, 3047.067
478.7570, 3066.086
479.2391, 3088.726
479.7213, 3104.413
480.2034, 3111.932
480.6855, 3123.530
481.1676, 3144.701
481.6497, 3168.485
482.1318, 3188.520
482.6140, 3205.415
483.0961, 3224.058
483.5782, 3247.418
484.0603, 3273.733
484.5424, 3301.095
485.0245, 3329.437
485.5067, 3356.774
485.9888, 3380.527
486.4709, 3403.475
486.9530, 3432.500
487.4351, 3469.948
487.9172, 3507.860
488.3994, 3542.274
488.8815, 3576.278
489.3636, 3613.602
489.8457, 3655.077
490.3278, 3699.730
490.8099, 3747.505
491.2921, 3798.342
491.7742, 3847.172
492.2563, 3891.333
492.7384, 3936.564
493.2205, 3981.723
493.7026, 4029.775
494.1848, 4085.714
494.6669, 4151.032
495.1490, 4220.934
495.6311, 4288.513
496.1132, 4353.017
496.5953, 4416.915
497.0775, 4479.373
497.5596, 4542.427
498.0417, 4605.156
498.5238, 4669.276
499.0059, 4738.639
499.4880, 4816.972
499.9702, 4899.321
500.4523, 4974.033
500.9344, 5039.292
501.4165, 5109.814
501.8986, 5193.295
502.3807, 5280.167
502.8629, 5361.519
503.3450, 5436.934
503.8271, 5510.196
504.3092, 5581.826
504.7913, 5653.005
505.2734, 5724.042
505.7556, 5795.021
506.2377, 5870.435
506.7198, 5955.282
507.2019, 6045.616
507.6840, 6128.695
508.1661, 6203.328
508.6483, 6274.251
509.1304, 6343.349
509.6125, 6409.155
510.0946, 6470.147
510.5767, 6525.853
511.0588, 6575.686
511.5410, 6619.583
512.0231, 6657.507
512.5052, 6683.994
512.9873, 6695.743
513.4694, 6699.783
513.9515, 6700.841
514.4337, 6693.120
514.9158, 6668.978
515.3979, 6626.526
515.8800, 6571.978
516.3621, 6511.468
516.8442, 6444.843
517.3264, 6375.344
517.8085, 6302.544
518.2906, 6226.163
518.7727, 6146.933
519.2548, 6064.286
519.7369, 5976.785
520.2191, 5882.274
520.7012, 5785.959
521.1833, 5693.718
521.6654, 5604.985
522.1475, 5515.099
522.6296, 5422.521
523.1118, 5329.557
523.5939, 5238.463
524.0760, 5149.452
524.5581, 5063.767
525.0402, 4980.375
525.5223, 4901.482
526.0045, 4830.040
526.4866, 4764.663
526.9687, 4700.192
527.4508, 4634.659
527.9329, 4569.687
528.4150, 4508.135
528.8972, 4449.082
529.3793, 4397.126
529.8614, 4358.205
530.3435, 4320.706
530.8256, 4276.433
531.3077, 4228.002
531.7899, 4182.831
532.2720, 4145.333
532.7541, 4113.599
533.2362, 4082.646
533.7183, 4051.483
534.2004, 4023.544
534.6826, 4000.313
535.1647, 3979.822
535.6468, 3961.446
536.1289, 3944.961
536.6110, 3930.331
537.0931, 3918.112
537.5753, 3907.483
538.0574, 3896.895
538.5395, 3886.278
539.0216, 3876.814
539.5037, 3868.657
539.9858, 3862.330
540.4680, 3858.879
540.9501, 3858.616
541.4322, 3858.657
541.9143, 3857.885
542.3964, 3857.265
542.8785, 3858.464
543.3607, 3861.068
543.8428, 3862.198
544.3249, 3859.622
544.8070, 3854.924
545.2891, 3853.931
545.7712, 3857.172
546.2534, 3863.872
546.7355, 3877.027
547.2176, 3891.237
547.6997, 3901.414
548.1818, 3908.247
548.6639, 3916.727
549.1461, 3930.449
549.6282, 3948.938
550.1103, 3969.105
550.5924, 3988.341
551.0745, 4016.079
551.5566, 4062.162
552.0388, 4114.113
552.5209, 4161.579
553.0030, 4203.914
553.4851, 4249.840
553.9672, 4305.077
554.4493, 4367.392
554.9315, 4435.335
555.4136, 4508.869
555.8957, 4580.305
556.3778, 4645.813
556.8599, 4705.791
557.3420, 4759.637
557.8242, 4806.284
558.3063, 4850.923
558.7884, 4890.082
559.2705, 4930.514
559.7526, 4977.212
560.2347, 5030.775
560.7169, 5090.915
561.1990, 5157.181
561.6811, 5227.109
562.1632, 5305.820
562.6453, 5384.399
563.1274, 5471.169
563.6096, 5563.664
564.0917, 5665.035
564.5738, 5777.800
565.0559, 5902.223
565.5380, 6036.343
566.0201, 6175.840
566.5023, 6325.593
566.9844, 6497.377
567.4665, 6691.919
567.9486, 6909.155
568.4307, 7150.323
568.9128, 7413.592
569.3950, 7699.669
569.8771, 8013.058
570.3592, 8313.702
570.8413, 8616.159
571.3234, 8883.043
571.8055, 9093.627
572.2877, 9237.284
572.7698, 9276.990
573.2519, 9191.577
573.7340, 8991.252
574.2161, 8700.337
574.6982, 8262.199
575.1804, 7824.142
575.6625, 7360.151
576.1446, 6920.620
576.6267, 6530.536
577.1088, 6191.986
577.5909, 5898.450
578.0731, 5648.483
578.5552, 5439.320
579.0373, 5267.901
579.5194, 5137.341
580.0015, 5028.702
580.4836, 4943.974
580.9658, 4876.629
581.4479, 4821.453
581.9300, 4777.735
582.4121, 4742.634
582.8942, 4716.568
583.3763, 4697.504
583.8585, 4684.081
584.3406, 4676.170
584.8227, 4673.511
585.3048, 4676.244
585.7869, 4683.281
586.2690, 4693.536
586.7512, 4707.770
587.2333, 4721.861
587.7154, 4730.350
588.1975, 4744.559
588.6796, 4773.810
589.1617, 4810.703
589.6439, 4841.938
590.1260, 4862.805
590.6081, 4883.230
591.0902, 4917.607
591.5723, 4967.191
592.0544, 5018.790
592.5366, 5074.134
593.0187, 5128.165
593.5008, 5176.112
593.9829, 5221.827
594.4650, 5271.197
594.9471, 5325.003
595.4293, 5383.610
595.9114, 5447.710
596.3935, 5516.360
596.8756, 5586.406
597.3577, 5657.195
597.8398, 5731.177
598.3220, 5810.633
598.8041, 5894.872
599.2862, 5980.147
599.7683, 6061.055
600.2504, 6149.955
600.7325, 6252.933
601.2147, 6362.500
601.6968, 6470.849
602.1789, 6578.158
602.6610, 6691.604
603.1431, 6817.348
603.6252, 6952.477
604.1074, 7079.530
604.5895, 7192.714
605.0716, 7313.379
605.5537, 7451.189
606.0358, 7595.915
606.5179, 7739.651
607.0001, 7882.366
607.4822, 8031.907
607.9643, 8197.369
608.4464, 8367.482
608.9285, 8526.088
609.4106, 8675.440
609.8928, 8825.146
610.3749, 8978.338
610.8570, 9135.591
611.3391, 9299.923
611.8212, 9474.278
612.3033, 9642.189
612.7855, 9798.827
613.2676, 9954.089
613.7497, 10115.69
614.2318, 10278.84
614.7139, 10434.71
615.1960, 10580.69
615.6782, 10720.83
616.1603, 10862.01
616.6424, 11005.01
617.1245, 11135.85
617.6066, 11250.21
618.0887, 11360.02
618.5709, 11477.59
619.0530, 11593.08
619.5351, 11692.77
620.0172, 11774.00
620.4993, 11843.54
620.9814, 11901.87
621.4636, 11952.82
621.9457, 12006.28
622.4278, 12061.71
622.9099, 12103.16
623.3920, 12119.75
623.8741, 12115.39
624.3563, 12103.42
624.8384, 12085.01
625.3205, 12056.36
625.8026, 12020.60
626.2847, 11972.32
626.7668, 11908.32
627.2490, 11828.56
627.7311, 11733.77
628.2132, 11622.74
628.6953, 11500.63
629.1774, 11375.43
629.6595, 11248.06
630.1417, 11108.99
630.6238, 10953.37
631.1059, 10791.83
631.5880, 10632.95
632.0701, 10474.79
632.5522, 10311.66
633.0344, 10140.68
633.5165, 9967.240
633.9986, 9791.069
634.4807, 9614.601
634.9628, 9439.237
635.4449, 9266.063
635.9271, 9099.708
636.4092, 8946.166
636.8913, 8803.607
637.3734, 8662.213
637.8555, 8524.098
638.3376, 8383.553
638.8198, 8232.583
639.3019, 8084.102
639.7840, 7947.720
640.2661, 7824.136
640.7482, 7707.365
641.2303, 7597.178
641.7125, 7490.091
642.1946, 7379.482
642.6767, 7266.181
643.1588, 7157.586
643.6409, 7056.548
644.1230, 6960.264
644.6052, 6866.030
645.0873, 6774.407
645.5694, 6682.403
646.0515, 6584.405
646.5336, 6492.446
647.0157, 6411.374
647.4979, 6339.132
647.9800, 6275.411
648.4621, 6218.690
648.9442, 6161.915
649.4263, 6096.421
649.9084, 6023.217
650.3906, 5955.576
650.8727, 5893.727
651.3548, 5836.265
651.8369, 5785.477
652.3190, 5736.696
652.8011, 5685.308
653.2833, 5630.892
653.7654, 5576.971
654.2475, 5522.267
654.7296, 5470.307
655.2117, 5425.634
655.6938, 5386.524
656.1760, 5348.443
656.6581, 5309.647
657.1402, 5269.873
657.6223, 5228.755
658.1044, 5186.287
658.5865, 5142.479
659.0687, 5093.983
659.5508, 5047.938
660.0329, 5007.179
660.5150, 4969.634
660.9971, 4933.763
661.4792, 4899.237
661.9614, 4863.613
662.4435, 4825.003
662.9256, 4784.188
663.4077, 4742.849
663.8898, 4701.124
664.3719, 4660.451
664.8541, 4621.491
665.3362, 4583.896
665.8183, 4547.064
666.3004, 4511.200
666.7825, 4475.441
667.2646, 4439.124
667.7468, 4403.413
668.2289, 4368.897
668.7110, 4335.371
669.1931, 4301.855
669.6752, 4268.079
670.1573, 4236.494
670.6395, 4213.065
671.1216, 4196.544
671.6037, 4168.559
672.0858, 4124.562
672.5679, 4083.578
673.0500, 4055.167
673.5322, 4034.370
674.0143, 4014.271
674.4964, 3995.165
674.9785, 3973.617
675.4606, 3945.828
675.9427, 3917.634
676.4249, 3893.906
676.9070, 3873.815
677.3891, 3854.619
677.8712, 3835.125
678.3533, 3816.305
678.8354, 3800.059
679.3176, 3786.949
679.7997, 3770.579
680.2818, 3747.071
680.7639, 3726.122
681.2460, 3712.465
681.7281, 3702.115
682.2103, 3690.327
682.6924, 3676.339
683.1745, 3664.219
683.6566, 3656.875
684.1387, 3652.095
684.6208, 3647.994
685.1030, 3644.092
685.5851, 3638.049
686.0672, 3628.599
686.5493, 3619.213
687.0314, 3615.402
687.5135, 3618.413
687.9957, 3620.395
688.4778, 3618.230
688.9599, 3618.689
689.4420, 3626.055
689.9241, 3635.513
690.4063, 3641.414
690.8884, 3642.798
691.3705, 3643.286
691.8526, 3643.662
692.3347, 3645.671
692.8168, 3653.999
693.2990, 3668.240
693.7811, 3681.378
694.2632, 3690.417
694.7453, 3698.452
695.2274, 3710.202
695.7095, 3726.823
696.1917, 3740.126
696.6738, 3746.430
697.1559, 3754.120
697.6380, 3767.560
698.1201, 3782.873
698.6022, 3794.053
699.0844, 3801.015
699.5665, 3810.915
700.0486, 3831.393
700.5307, 3858.370
701.0128, 3880.674
701.4949, 3898.156
701.9771, 3915.365
702.4592, 3932.978
702.9413, 3952.107
703.4234, 3974.876
703.9055, 4001.609
704.3876, 4024.776
704.8698, 4039.933
705.3519, 4056.806
705.8340, 4080.303
706.3161, 4106.254
706.7982, 4128.745
707.2803, 4147.753
707.7625, 4168.722
708.2446, 4196.516
708.7267, 4228.592
709.2088, 4257.108
709.6909, 4281.627
710.1730, 4307.788
710.6552, 4338.204
711.1373, 4368.726
711.6194, 4395.220
712.1015, 4418.325
712.5836, 4441.591
713.0657, 4465.523
713.5479, 4489.455
714.0300, 4510.737
714.5121, 4533.440
714.9942, 4564.540
715.4763, 4602.514
715.9584, 4637.035
716.4406, 4660.664
716.9227, 4678.896
717.4048, 4704.931
717.8869, 4739.681
718.3690, 4773.955
718.8511, 4806.437
719.3333, 4838.056
719.8154, 4867.844
720.2975, 4897.263
720.7796, 4930.620
721.2617, 4970.906
721.7438, 5009.284
722.2260, 5039.864
722.7081, 5069.101
723.1902, 5104.245
723.6723, 5143.917
724.1544, 5182.115
724.6365, 5215.597
725.1187, 5247.345
725.6008, 5283.165
726.0829, 5323.216
726.5650, 5362.157
727.0471, 5399.308
727.5292, 5436.290
728.0114, 5474.047
728.4935, 5512.423
728.9756, 5551.725
729.4577, 5592.125
729.9398, 5632.063
730.4219, 5669.490
730.9041, 5708.185
731.3862, 5751.886
731.8683, 5799.194
732.3504, 5847.343
732.8325, 5895.113
733.3146, 5941.942
733.7968, 5986.789
734.2789, 6029.717
734.7610, 6071.677
735.2431, 6112.654
735.7252, 6152.425
736.2073, 6188.985
736.6895, 6225.755
737.1716, 6268.766
737.6537, 6317.588
738.1358, 6360.751
738.6179, 6392.171
739.1000, 6421.397
739.5822, 6455.152
740.0643, 6489.299
740.5464, 6518.297
741.0285, 6541.007
741.5106, 6560.126
741.9927, 6578.009
742.4749, 6593.825
742.9570, 6604.491
743.4391, 6609.767
743.9212, 6611.202
744.4033, 6607.439
744.8854, 6602.436
745.3676, 6601.874
745.8497, 6602.882
746.3318, 6595.280
746.8139, 6572.396
747.2960, 6550.567
747.7781, 6539.918
748.2603, 6528.869
748.7424, 6504.138
749.2245, 6468.770
749.7066, 6436.343
750.1887, 6414.026
750.6708, 6394.347
751.1530, 6364.995
751.6351, 6326.247
752.1172, 6285.180
752.5993, 6242.334
753.0814, 6196.952
753.5635, 6148.181
754.0457, 6096.834
754.5278, 6044.113
755.0099, 5989.889
755.4920, 5935.194
755.9741, 5882.099
756.4562, 5826.153
756.9384, 5762.698
757.4205, 5695.513
757.9026, 5629.727
758.3847, 5566.696
758.8668, 5507.708
759.3489, 5456.055
759.8311, 5408.647
760.3132, 5356.523
760.7953, 5299.918
761.2774, 5241.259
761.7595, 5181.325
762.2416, 5120.343
762.7238, 5056.802
763.2059, 4990.935
763.6880, 4933.152
764.1701, 4891.023
764.6522, 4846.058
765.1343, 4793.453
765.6165, 4738.348
766.0986, 4683.425
766.5807, 4630.052
767.0628, 4580.862
767.5449, 4538.506
768.0270, 4496.732
768.5092, 4447.343
768.9913, 4392.555
769.4734, 4339.765
769.9555, 4290.034
770.4376, 4241.601
770.9197, 4193.682
771.4019, 4146.000
771.8840, 4098.089
772.3661, 4048.651
772.8482, 4002.376
773.3303, 3960.990
773.8124, 3920.023
774.2946, 3877.524
774.7767, 3834.773
775.2588, 3793.332
775.7409, 3753.179
776.2230, 3714.479
776.7051, 3678.653
777.1873, 3643.228
777.6694, 3603.585
778.1515, 3561.775
778.6336, 3524.628
779.1157, 3493.936
779.5978, 3465.814
780.0800, 3436.875
780.5621, 3407.072
781.0442, 3374.143
781.5263, 3334.707
782.0084, 3300.400
782.4905, 3276.239
782.9727, 3254.208
783.4548, 3228.925
783.9369, 3201.882
784.4190, 3176.997
784.9011, 3155.083
785.3832, 3135.357
785.8654, 3119.059
786.3475, 3103.614
786.8296, 3086.088
787.3117, 3066.866
787.7938, 3047.489
788.2759, 3028.701
788.7581, 3011.257
789.2402, 2995.990
789.7223, 2982.947
790.2044, 2974.335
790.6865, 2971.513
791.1686, 2967.596
791.6508, 2960.210
792.1329, 2950.408
792.6150, 2938.547
793.0971, 2924.659
793.5792, 2912.784
794.0613, 2903.083
794.5435, 2895.634
795.0256, 2892.167
795.5077, 2889.741
795.9898, 2884.714
796.4719, 2877.723
796.9540, 2872.809
797.4362, 2872.692
797.9183, 2874.236
798.4004, 2873.250
798.8825, 2870.232
799.3646, 2867.171
799.8467, 2864.301
800.3289, 2860.873
800.8110, 2856.185
801.2931, 2851.139
801.7752, 2847.860
802.2573, 2847.427
802.7394, 2845.116
803.2216, 2837.606
803.7037, 2832.048
804.1858, 2832.851
804.6679, 2835.076
805.1500, 2832.601
805.6321, 2825.156
806.1143, 2818.685
806.5964, 2816.693
807.0785, 2816.161
807.5606, 2814.733
808.0427, 2812.871
808.5248, 2810.982
809.0070, 2809.441
809.4891, 2810.376
809.9712, 2816.178
810.4533, 2823.052
810.9354, 2818.832
811.4175, 2801.267
811.8997, 2790.939
812.3818, 2791.847
812.8639, 2795.749
813.3460, 2799.223
813.8281, 2802.045
814.3102, 2803.819
814.7924, 2804.532
815.2745, 2804.273
815.7566, 2801.892
816.2387, 2799.750
816.7208, 2798.234
817.2029, 2798.086
817.6851, 2800.469
818.1672, 2805.387
818.6493, 2811.367
819.1314, 2817.598
819.6135, 2823.956
820.0956, 2830.255
820.5778, 2836.495
821.0599, 2842.809
821.5420, 2849.235
822.0241, 2855.287
822.5062, 2860.487
822.9883, 2865.289
823.4705, 2871.018
823.9526, 2876.646
824.4347, 2885.842
824.9168, 2904.332
825.3989, 2919.437
825.8810, 2922.445
826.3632, 2921.099
826.8453, 2925.971
827.3274, 2938.518
827.8095, 2951.631
828.2916, 2963.151
828.7737, 2973.873
829.2559, 2982.113
829.7380, 2990.917
830.2201, 3006.040
830.7022, 3027.786
831.1843, 3050.717
831.6664, 3070.980
832.1486, 3089.180
832.6307, 3105.660
833.1128, 3120.612
833.5949, 3138.469
834.0770, 3160.051
834.5591, 3183.430
835.0413, 3207.451
835.5233, 3232.239
836.0054, 3257.349
836.4875, 3281.587
836.9697, 3309.863
837.4518, 3344.858
837.9339, 3380.214
838.4160, 3414.209
838.8981, 3447.005
839.3802, 3478.311
839.8624, 3508.461
840.3445, 3539.262
840.8266, 3570.789
841.3087, 3604.090
841.7908, 3640.063
842.2729, 3678.447
842.7551, 3719.334
843.2372, 3762.369
843.7193, 3806.155
844.2014, 3849.979
844.6835, 3893.563
845.1656, 3936.028
845.6478, 3977.588
846.1299, 4022.385
846.6120, 4071.530
847.0941, 4121.068
847.5762, 4170.851
848.0583, 4218.520
848.5405, 4259.503
849.0226, 4292.635
849.5047, 4329.142
849.9868, 4372.054
850.4689, 4413.938
850.9510, 4454.269
851.4332, 4491.839
851.9153, 4525.483
852.3974, 4555.473
852.8795, 4583.104
853.3616, 4608.772
853.8438, 4632.213
854.3259, 4655.167
854.8080, 4674.515
855.2901, 4683.458
855.7722, 4684.194
856.2543, 4686.588
856.7365, 4694.551
857.2186, 4702.858
857.7007, 4705.050
858.1828, 4701.806
858.6649, 4697.935
859.1470, 4693.348
859.6292, 4688.968
860.1113, 4686.146
860.5934, 4681.170
861.0755, 4670.256
861.5576, 4654.489
862.0397, 4639.332
862.5219, 4627.890
863.0040, 4611.910
863.4861, 4586.054
863.9682, 4560.899
864.4503, 4544.799
864.9324, 4531.586
865.4146, 4510.923
865.8967, 4480.981
866.3788, 4450.482
866.8609, 4425.205
867.3430, 4401.095
867.8251, 4374.341
868.3073, 4345.796
868.7894, 4318.293
869.2715, 4291.597
869.7536, 4261.813
870.2357, 4225.777
870.7178, 4186.071
871.2000, 4148.158
871.6821, 4111.954
872.1642, 4071.287
872.6463, 4024.477
873.1284, 3979.490
873.6105, 3941.352
874.0927, 3904.646
874.5748, 3860.403
875.0569, 3806.768
875.5390, 3759.915
876.0211, 3728.305
876.5032, 3692.224
876.9854, 3642.810
877.4675, 3592.810
877.9496, 3552.361
878.4317, 3519.679
878.9138, 3488.191
879.3959, 3456.188
879.8781, 3425.166
880.3602, 3396.961
880.8423, 3369.614
881.3244, 3340.486
881.8065, 3310.756
882.2886, 3282.585
882.7708, 3256.850
883.2529, 3233.780
883.7350, 3214.713
884.2171, 3197.453
884.6992, 3176.145
885.1813, 3151.370
885.6635, 3128.124
886.1456, 3107.156
886.6277, 3090.788
887.1098, 3081.724
887.5919, 3076.281
888.0740, 3065.126
888.5562, 3047.259
889.0383, 3027.128
889.5204, 3000.817
890.0025, 2979.033
890.4846, 2971.785
890.9667, 2966.508
891.4489, 2948.129
891.9310, 2917.749
892.4131, 2891.732
892.8952, 2877.296
893.3773, 2861.179
893.8594, 2837.814
894.3416, 2812.604
894.8237, 2790.097
895.3058, 2769.357
895.7879, 2747.159
896.2700, 2722.291
896.7521, 2697.067
897.2343, 2672.900
897.7164, 2649.663
898.1985, 2626.311
898.6806, 2603.616
899.1627, 2583.858
899.6448, 2567.509
900.1270, 2552.123
900.6091, 2535.826
901.0912, 2519.328
901.5733, 2504.856
902.0554, 2492.466
902.5375, 2480.113
903.0197, 2467.779
903.5018, 2454.413
903.9839, 2438.163
904.4660, 2422.886
904.9481, 2415.616
905.4302, 2417.538
905.9124, 2415.885
906.3945, 2408.612
906.8766, 2400.656
907.3587, 2391.575
907.8408, 2383.193
908.3229, 2375.930
908.8051, 2370.435
909.2872, 2368.635
909.7693, 2372.521
910.2514, 2374.841
910.7335, 2371.092
911.2156, 2366.637
911.6978, 2365.420
912.1799, 2366.148
912.6620, 2365.910
913.1441, 2364.541
913.6262, 2365.188
914.1083, 2370.851
914.5905, 2378.089
915.0726, 2382.236
915.5547, 2384.480
916.0368, 2387.791
916.5189, 2392.324
917.0010, 2396.119
917.4832, 2398.083
917.9653, 2401.028
918.4474, 2409.590
918.9295, 2423.139
919.4116, 2434.997
919.8937, 2444.931
920.3759, 2454.182
920.8580, 2462.734
921.3401, 2471.324
921.8222, 2480.309
922.3043, 2490.007
922.7864, 2502.049
923.2686, 2519.657
923.7507, 2532.440
924.2328, 2535.408
924.7149, 2539.416
925.1970, 2549.852
925.6791, 2561.837
926.1613, 2569.213
926.6434, 2572.276
927.1255, 2577.577
927.6076, 2589.588
928.0897, 2600.323
928.5718, 2606.077
929.0540, 2610.012
929.5361, 2613.227
930.0182, 2617.283
930.5003, 2626.504
930.9824, 2641.977
931.4645, 2653.735
931.9467, 2650.620
932.4288, 2642.073
932.9109, 2639.940
933.3930, 2641.797
933.8751, 2641.799
934.3572, 2639.001
934.8394, 2635.676
935.3215, 2633.345
935.8036, 2630.803
936.2857, 2626.181
936.7678, 2619.496
937.2499, 2610.865
937.7321, 2600.277
938.2142, 2588.107
938.6963, 2574.179
939.1784, 2560.810
939.6605, 2550.856
940.1426, 2543.629
940.6248, 2535.140
941.1069, 2525.584
941.5890, 2513.981
942.0711, 2498.858
942.5532, 2483.933
943.0353, 2470.031
943.5175, 2457.980
943.9996, 2450.497
944.4817, 2448.302
944.9638, 2441.664
945.4459, 2424.004
945.9280, 2410.351
946.4102, 2407.304
946.8923, 2406.453
947.3744, 2400.570
947.8565, 2392.160
948.3386, 2388.879
948.8207, 2393.883
949.3029, 2394.796
949.7850, 2379.148
950.2671, 2364.466
950.7492, 2366.652
951.2313, 2376.260
951.7134, 2379.394
952.1956, 2374.856
952.6777, 2369.367
953.1598, 2366.383
953.6419, 2364.531
954.1240, 2361.911
954.6061, 2359.583
955.0883, 2359.610
955.5704, 2361.762
956.0525, 2364.737
956.5346, 2368.115
957.0167, 2372.433
957.4988, 2378.572
957.9810, 2385.266
958.4631, 2388.761
958.9452, 2389.392
959.4273, 2391.500
959.9094, 2395.553
960.3915, 2401.179
960.8737, 2408.298
961.3558, 2416.705
961.8379, 2426.704
962.3200, 2438.098
962.8021, 2444.250
963.2842, 2444.439
963.7664, 2441.406
964.2485, 2433.582
964.7306, 2426.392
965.2127, 2424.459
965.6948, 2424.860
966.1769, 2420.800
966.6591, 2410.644
967.1412, 2402.417
967.6233, 2396.815
968.1054, 2392.176
968.5875, 2388.020
969.0696, 2384.817
969.5518, 2382.382
970.0339, 2381.231
970.5160, 2383.134
970.9981, 2389.685
971.4802, 2395.101
971.9623, 2395.709
972.4445, 2396.886
972.9266, 2401.623
973.4087, 2408.750
973.8908, 2417.472
974.3729, 2427.024
974.8550, 2435.229
975.3372, 2440.128
975.8193, 2446.160
976.3014, 2458.292
976.7835, 2471.892
977.2656, 2480.763
977.7477, 2487.134
978.2299, 2496.235
978.7120, 2509.520
979.1941, 2526.212
979.6762, 2547.237
980.1583, 2568.606
980.6404, 2583.702
981.1226, 2594.872
981.6047, 2606.106
982.0868, 2618.664
982.5689, 2636.510
983.0510, 2661.162
983.5331, 2687.552
984.0153, 2709.818
984.4974, 2729.756
984.9795, 2753.375
985.4616, 2780.347
985.9437, 2805.725
986.4258, 2828.547
986.9080, 2857.039
987.3901, 2896.687
987.8722, 2940.021
988.3543, 2975.717
988.8364, 3003.967
989.3185, 3028.975
989.8007, 3048.936
990.2828, 3074.224
990.7649, 3107.447
991.2470, 3144.909
991.7291, 3185.718
992.2112, 3227.772
992.6934, 3265.976
993.1755, 3298.561
993.6576, 3336.702
994.1397, 3382.544
994.6218, 3429.944
995.1039, 3476.684
995.5861, 3525.361
996.0682, 3578.981
996.5503, 3635.653
997.0324, 3690.585
997.5145, 3743.378
997.9966, 3795.086
998.4788, 3841.024
998.9609, 3891.892
999.4430, 3954.131
999.9251, 4020.234
1000.407, 4083.189
1000.889, 4144.181
1001.371, 4208.063
1001.854, 4276.748
1002.336, 4346.960
1002.818, 4418.688
1003.300, 4491.083
1003.782, 4564.013
1004.264, 4637.294
1004.746, 4707.982
1005.228, 4777.714
1005.711, 4853.585
1006.193, 4939.924
1006.675, 5028.710
1007.157, 5113.964
1007.639, 5200.268
1008.121, 5293.545
1008.603, 5390.317
1009.085, 5481.738
1009.567, 5568.068
1010.050, 5658.091
1010.532, 5756.809
1011.014, 5860.522
1011.496, 5966.175
1011.978, 6074.491
1012.460, 6185.321
1012.942, 6299.374
1013.424, 6417.673
1013.906, 6540.182
1014.389, 6667.641
1014.871, 6799.446
1015.353, 6937.857
1015.835, 7086.739
1016.317, 7244.854
1016.799, 7406.025
1017.281, 7570.585
1017.763, 7739.962
1018.246, 7915.030
1018.728, 8103.991
1019.210, 8312.826
1019.692, 8538.228
1020.174, 8772.220
1020.656, 9015.787
1021.138, 9273.721
1021.620, 9546.334
1022.102, 9831.310
1022.585, 10126.46
1023.067, 10438.46
1023.549, 10774.07
1024.031, 11131.32
1024.513, 11509.83
1024.995, 11908.85
1025.477, 12321.61
1025.959, 12748.01
1026.442, 13190.47
1026.924, 13646.89
1027.406, 14130.70
1027.888, 14658.39
1028.370, 15226.31
1028.852, 15804.92
1029.334, 16394.56
1029.816, 16997.81
1030.298, 17613.53
1030.781, 18251.95
1031.263, 18912.64
1031.745, 19595.62
1032.227, 20300.99
1032.709, 21024.86
1033.191, 21771.72
1033.673, 22540.24
1034.155, 23323.85
1034.638, 24126.31
1035.120, 24940.56
1035.602, 25768.68
1036.084, 26606.93
1036.566, 27448.04
1037.048, 28292.04
1037.530, 29136.30
1038.012, 29982.07
1038.495, 30836.10
1038.977, 31724.26
1039.459, 32582.97
1039.941, 33381.95
1040.423, 34134.91
1040.905, 34855.61
1041.387, 35540.99
1041.869, 36173.20
1042.351, 36735.50
1042.833, 37272.66
1043.316, 37816.23
1043.798, 38299.45
1044.280, 38680.14
1044.762, 38996.25
1045.244, 39288.00
1045.726, 39553.66
1046.208, 39768.93
1046.690, 39908.71
1047.173, 40033.55
1047.655, 40162.76
1048.137, 40260.06
1048.619, 40288.07
1049.101, 40289.33
1049.583, 40319.66
1050.065, 40376.24
1050.547, 40405.31
1051.030, 40390.05
1051.512, 40364.19
1051.994, 40329.91
1052.476, 40289.27
1052.958, 40247.19
1053.440, 40196.73
1053.922, 40132.66
1054.404, 40053.23
1054.886, 39951.00
1055.369, 39802.57
1055.851, 39672.61
1056.333, 39595.66
1056.815, 39517.86
1057.297, 39400.79
1057.779, 39274.82
1058.261, 39181.52
1058.743, 39116.98
1059.225, 39041.55
1059.708, 38945.91
1060.190, 38840.29
1060.672, 38710.29
1061.154, 38591.55
1061.636, 38512.79
1062.118, 38450.18
1062.600, 38390.50
1063.082, 38321.70
1063.565, 38208.05
1064.047, 38023.01
1064.529, 37841.54
1065.011, 37716.68
1065.493, 37571.85
1065.975, 37360.52
1066.457, 37106.45
1066.939, 36829.96
1067.422, 36538.60
1067.904, 36243.20
1068.386, 35946.74
1068.868, 35647.77
1069.350, 35364.25
1069.832, 35058.09
1070.314, 34691.19
1070.796, 34302.14
1071.278, 33926.66
1071.760, 33567.59
1072.243, 33221.90
1072.725, 32894.48
1073.207, 32549.08
1073.689, 32154.02
1074.171, 31755.91
1074.653, 31376.57
1075.135, 31008.71
1075.617, 30645.18
1076.100, 30283.97
1076.582, 29933.71
1077.064, 29597.35
1077.546, 29250.71
1078.028, 28874.26
1078.510, 28493.07
1078.992, 28119.09
1079.474, 27747.93
1079.957, 27369.53
1080.439, 26992.21
1080.921, 26636.07
1081.403, 26304.38
1081.885, 25972.26
1082.367, 25622.26
1082.849, 25275.12
1083.331, 24946.97
1083.813, 24624.77
1084.296, 24293.69
1084.778, 23961.28
1085.260, 23639.71
1085.742, 23331.00
1086.224, 23015.56
1086.706, 22676.21
1087.188, 22343.70
1087.670, 22030.73
1088.152, 21729.36
1088.635, 21442.90
1089.117, 21158.43
1089.599, 20858.13
1090.081, 20540.37
1090.563, 20217.43
1091.045, 19886.45
1091.527, 19569.74
1092.009, 19283.74
1092.491, 19007.60
1092.974, 18729.23
1093.456, 18451.71
1093.938, 18178.24
1094.420, 17909.16
1094.902, 17638.90
1095.384, 17362.23
1095.866, 17095.45
1096.348, 16845.13
1096.831, 16605.52
1097.313, 16375.84
1097.795, 16152.12
1098.277, 15929.25
1098.759, 15708.78
1099.241, 15496.46
1099.723, 15293.04
1100.205, 15095.06
1100.688, 14901.61
1101.170, 14714.51
1101.652, 14537.68
1102.134, 14364.90
1102.616, 14191.18
1103.098, 14017.87
1103.580, 13845.58
1104.062, 13675.17
1104.544, 13510.87
1105.026, 13355.35
1105.509, 13205.40
1105.991, 13064.44
1106.473, 12924.39
1106.955, 12773.43
1107.437, 12623.76
1107.919, 12496.70
1108.401, 12392.11
1108.883, 12281.57
1109.366, 12152.87
1109.848, 12029.28
1110.330, 11921.39
1110.812, 11809.99
1111.294, 11679.10
1111.776, 11545.52
1112.258, 11426.58
1112.740, 11322.07
1113.223, 11225.01
1113.705, 11143.67
1114.187, 11050.75
1114.669, 10931.08
1115.151, 10818.63
1115.633, 10730.57
1116.115, 10646.13
1116.597, 10545.12
1117.079, 10436.04
1117.562, 10342.72
1118.044, 10269.61
1118.526, 10193.68
1119.008, 10113.01
1119.490, 10033.19
1119.972, 9954.938
1120.454, 9877.938
1120.936, 9799.148
1121.418, 9722.847
1121.901, 9657.902
1122.383, 9604.373
1122.865, 9544.951
1123.347, 9475.834
1123.829, 9409.423
1124.311, 9347.479
1124.793, 9285.906
1125.275, 9221.564
1125.758, 9159.545
1126.240, 9107.932
1126.722, 9044.075
1127.204, 8982.424
1127.686, 8926.454
1128.168, 8857.710
1128.650, 8800.877
1129.132, 8746.066
1129.615, 8691.515
1130.097, 8632.190
1130.579, 8561.971
1131.061, 8505.744
1131.543, 8426.536
1132.025, 8379.307
1132.507, 8321.055
1132.989, 8250.541
1133.471, 8183.156
1133.953, 8121.927
1134.436, 8060.524
1134.918, 7995.087
1135.400, 7929.767
1135.882, 7870.837
1136.364, 7816.982
1136.846, 7762.675
1137.328, 7707.882
1137.810, 7651.585
1138.293, 7593.654
1138.775, 7531.259
1139.257, 7463.374
1139.739, 7399.829
1140.221, 7350.591
1140.703, 7286.634
1141.185, 7245.632
1141.667, 7175.513
1142.150, 7116.831
1142.632, 7068.441
1143.114, 7023.118
1143.596, 6978.077
1144.078, 6928.261
1144.560, 6869.837
1145.042, 6809.808
1145.524, 6756.708
1146.006, 6701.815
1146.489, 6653.963
1146.971, 6599.931
1147.453, 6551.221
1147.935, 6505.994
1148.417, 6453.512
1148.899, 6390.546
1149.381, 6331.737
1149.863, 6291.260
1150.345, 6254.378
1150.828, 6206.006
1151.310, 6155.571
1151.792, 6115.092
1152.274, 6080.925
1152.756, 6046.222
1153.238, 6009.224
1153.720, 5969.672
1154.202, 5925.546
1154.685, 5884.378
1155.167, 5852.512
1155.649, 5821.959
1156.131, 5786.013
1156.613, 5749.663
1157.095, 5719.804
1157.577, 5694.106
1158.059, 5665.026
1158.542, 5630.719
1159.024, 5596.409
1159.506, 5562.110
1159.988, 5529.677
1160.470, 5498.655
1160.952, 5470.934
1161.434, 5452.108
1161.916, 5435.000
1162.398, 5407.161
1162.880, 5369.257
1163.363, 5338.162
1163.845, 5320.083
1164.327, 5297.155
1164.809, 5263.237
1165.291, 5235.075
1165.773, 5219.823
1166.255, 5209.490
1166.737, 5199.642
1167.220, 5187.925
1167.702, 5167.114
1168.184, 5135.420
1168.666, 5113.799
1169.148, 5105.049
1169.630, 5092.298
1170.112, 5071.803
1170.594, 5051.926
1171.077, 5036.959
1171.559, 5024.446
1172.041, 5011.601
1172.523, 4998.461
1173.005, 4985.010
1173.487, 4971.376
1173.969, 4958.820
1174.451, 4947.281
1174.933, 4933.811
1175.416, 4917.735
1175.898, 4903.954
1176.380, 4896.198
1176.862, 4881.242
1177.344, 4875.833
1177.826, 4858.519
1178.308, 4847.199
1178.790, 4839.104
1179.272, 4825.796
1179.755, 4808.016
1180.237, 4791.866
1180.719, 4779.890
1181.201, 4774.094
1181.683, 4780.469
1182.165, 4785.194
1182.647, 4771.226
1183.129, 4751.511
1183.612, 4741.201
1184.094, 4735.640
1184.576, 4725.130
1185.058, 4709.644
1185.540, 4696.366
1186.022, 4688.309
1186.504, 4679.688
1186.986, 4665.824
1187.469, 4653.602
1187.951, 4648.850
1188.433, 4644.733
1188.915, 4634.376
1189.397, 4621.142
1189.879, 4612.039
1190.361, 4607.566
1190.843, 4600.810
1191.325, 4590.770
1191.807, 4578.821
1192.290, 4560.887
1192.772, 4547.445
1193.254, 4545.557
1193.736, 4544.471
1194.218, 4533.899
1194.700, 4518.048
1195.182, 4507.743
1195.664, 4503.285
1196.147, 4501.285
1196.629, 4502.748
1197.111, 4500.842
1197.593, 4494.116
1198.075, 4486.065
1198.557, 4477.803
1199.039, 4472.554
1199.521, 4474.809
1200.004, 4469.519
1200.486, 4468.776
1200.968, 4468.528
1201.450, 4466.327
1201.932, 4470.118
1202.414, 4470.133
1202.896, 4465.130
1203.378, 4462.783
1203.860, 4467.333
1204.343, 4473.704
1204.825, 4476.297
1205.307, 4477.812
1205.789, 4481.082
1206.271, 4486.095
1206.753, 4494.153
1207.235, 4503.448
1207.717, 4509.644
1208.199, 4512.495
1208.682, 4516.686
1209.164, 4524.263
1209.646, 4533.474
1210.128, 4545.062
1210.610, 4556.104
1211.092, 4564.501
1211.574, 4571.897
1212.056, 4578.914
1212.539, 4586.490
1213.021, 4596.646
1213.503, 4609.752
1213.985, 4622.271
1214.467, 4636.144
1214.949, 4645.672
1215.431, 4647.301
1215.913, 4650.217
1216.396, 4658.910
1216.878, 4667.901
1217.360, 4671.375
1217.842, 4681.129
1218.324, 4680.075
1218.806, 4694.453
1219.288, 4702.571
1219.770, 4703.907
1220.252, 4706.828
1220.734, 4712.579
1221.217, 4718.319
1221.699, 4722.811
1222.181, 4726.584
1222.663, 4729.667
1223.145, 4733.829
1223.627, 4744.909
1224.109, 4758.445
1224.591, 4761.425
1225.074, 4758.316
1225.556, 4763.071
1226.038, 4775.807
1226.520, 4786.135
1227.002, 4789.993
1227.484, 4794.309
1227.966, 4803.258
1228.448, 4815.370
1228.931, 4832.232
1229.413, 4849.224
1229.895, 4861.591
1230.377, 4871.780
1230.859, 4883.429
1231.341, 4896.493
1231.823, 4909.101
1232.305, 4920.927
1232.787, 4932.100
1233.270, 4940.784
1233.752, 4951.614
1234.234, 4966.320
1234.716, 4981.869
1235.198, 4996.428
1235.680, 5011.375
1236.162, 5028.681
1236.644, 5047.616
1237.126, 5063.401
1237.609, 5074.438
1238.091, 5101.362
1238.573, 5145.713
1239.055, 5181.063
1239.537, 5201.499
1240.019, 5219.301
1240.501, 5241.154
1240.983, 5262.831
1241.466, 5278.569
1241.948, 5298.840
1242.430, 5311.344
1242.912, 5333.426
1243.394, 5350.239
1243.876, 5365.108
1244.358, 5388.834
1244.840, 5420.883
1245.323, 5448.546
1245.805, 5465.905
1246.287, 5487.162
1246.769, 5525.067
1247.251, 5563.858
1247.733, 5594.211
1248.215, 5622.438
1248.697, 5653.843
1249.179, 5686.304
1249.661, 5715.533
1250.144, 5742.167
1250.626, 5772.351
1251.108, 5806.120
1251.590, 5844.034
1252.072, 5889.318
1252.554, 5930.968
1253.036, 5966.103
1253.518, 5999.109
1254.001, 6031.802
1254.483, 6065.208
1254.965, 6100.507
1255.447, 6137.791
1255.929, 6178.397
1256.411, 6217.858
1256.893, 6259.856
1257.375, 6303.418
1257.858, 6347.202
1258.340, 6395.073
1258.822, 6442.642
1259.304, 6488.090
1259.786, 6534.069
1260.268, 6581.761
1260.750, 6632.817
1261.232, 6690.824
1261.714, 6750.427
1262.197, 6804.733
1262.679, 6857.667
1263.161, 6915.966
1263.643, 6978.651
1264.125, 7040.601
1264.607, 7100.770
1265.089, 7160.372
1265.571, 7214.606
1266.053, 7276.798
1266.536, 7353.477
1267.018, 7430.934
1267.500, 7503.202
1267.982, 7575.366
1268.464, 7652.271
1268.946, 7732.279
1269.428, 7812.537
1269.910, 7892.769
1270.393, 7971.277
1270.875, 8048.408
1271.357, 8127.424
1271.839, 8209.544
1272.321, 8304.402
1272.803, 8414.654
1273.285, 8525.037
1273.767, 8623.517
1274.250, 8723.897
1274.732, 8847.186
1275.214, 8977.337
1275.696, 9096.334
1276.178, 9209.924
1276.660, 9320.191
1277.142, 9434.432
1277.624, 9566.807
1278.106, 9717.572
1278.589, 9872.249
1279.071, 10027.42
1279.553, 10183.67
1280.035, 10336.54
1280.517, 10497.91
1280.999, 10677.39
1281.481, 10855.63
1281.963, 11016.83
1282.445, 11175.96
1282.928, 11352.41
1283.410, 11544.72
1283.892, 11749.38
1284.374, 11966.19
1284.856, 12188.94
1285.338, 12416.69
1285.820, 12646.87
1286.302, 12881.40
1286.785, 13131.44
1287.267, 13402.74
1287.749, 13676.80
1288.231, 13942.89
##END=



