##NAMES=Mikenewite
##RRUFFID=R210021
##IDEAL CHEMISTRY=Mn^2+^(S^4+^O_3_)&#183;3H_2_O
##LOCALITY=Ojuela mine, Mapimí, Municipio de Mapimí, Durango, Mexico
##OWNER=RRUFF
##SOURCE=Bob Jenkins
##DESCRIPTION=Yellowish spheres, associated with adamite and lotharmeyerite, type sample
##STATUS=The identification of this mineral is confirmed by single-crystal X-ray diffraction and chemical analysis.
##URL=rruff.info/R210021
##MEASURED CHEMISTRY=(Mn_0.85_Zn_0.11_Fe_0.04_Ca_0.02_)S_0.99_O_3_·3H_2_O ;  The sample is prone to the electron beam damage, but it did not seem to affect the relative proportions of cations. 
8.813672e+001, 2.245407e+002
8.861884e+001, 2.295347e+002
8.910095e+001, 2.331715e+002
8.958307e+001, 2.349344e+002
9.006519e+001, 2.357226e+002
9.054730e+001, 2.361089e+002
9.102942e+001, 2.362940e+002
9.151154e+001, 2.367271e+002
9.199365e+001, 2.388059e+002
9.247577e+001, 2.417045e+002
9.295789e+001, 2.429392e+002
9.344000e+001, 2.400160e+002
9.392212e+001, 2.346234e+002
9.440424e+001, 2.311191e+002
9.488635e+001, 2.300513e+002
9.536847e+001, 2.303670e+002
9.585059e+001, 2.310824e+002
9.633270e+001, 2.321444e+002
9.681482e+001, 2.325925e+002
9.729694e+001, 2.314058e+002
9.777905e+001, 2.287424e+002
9.826117e+001, 2.270520e+002
9.874329e+001, 2.266105e+002
9.922540e+001, 2.271170e+002
9.970752e+001, 2.281385e+002
1.001896e+002, 2.298806e+002
1.006718e+002, 2.312522e+002
1.011539e+002, 2.313727e+002
1.016360e+002, 2.299528e+002
1.021181e+002, 2.286550e+002
1.026002e+002, 2.274782e+002
1.030823e+002, 2.265322e+002
1.035645e+002, 2.267632e+002
1.040466e+002, 2.285830e+002
1.045287e+002, 2.310063e+002
1.050108e+002, 2.332608e+002
1.054929e+002, 2.352242e+002
1.059750e+002, 2.372576e+002
1.064572e+002, 2.395068e+002
1.069393e+002, 2.420492e+002
1.074214e+002, 2.442504e+002
1.079035e+002, 2.459108e+002
1.083856e+002, 2.473822e+002
1.088677e+002, 2.490185e+002
1.093499e+002, 2.513485e+002
1.098320e+002, 2.533923e+002
1.103141e+002, 2.548074e+002
1.107962e+002, 2.552408e+002
1.112783e+002, 2.562448e+002
1.117604e+002, 2.575683e+002
1.122426e+002, 2.595828e+002
1.127247e+002, 2.628455e+002
1.132068e+002, 2.687455e+002
1.136889e+002, 2.748985e+002
1.141710e+002, 2.801660e+002
1.146531e+002, 2.835790e+002
1.151353e+002, 2.877030e+002
1.156174e+002, 2.942690e+002
1.160995e+002, 3.022113e+002
1.165816e+002, 3.089006e+002
1.170637e+002, 3.125666e+002
1.175458e+002, 3.150750e+002
1.180280e+002, 3.177007e+002
1.185101e+002, 3.208018e+002
1.189922e+002, 3.239800e+002
1.194743e+002, 3.267076e+002
1.199564e+002, 3.291866e+002
1.204385e+002, 3.322770e+002
1.209207e+002, 3.369090e+002
1.214028e+002, 3.422867e+002
1.218849e+002, 3.474820e+002
1.223670e+002, 3.519854e+002
1.228491e+002, 3.564161e+002
1.233312e+002, 3.616133e+002
1.238134e+002, 3.675250e+002
1.242955e+002, 3.729219e+002
1.247776e+002, 3.762536e+002
1.252597e+002, 3.783301e+002
1.257418e+002, 3.807961e+002
1.262239e+002, 3.857945e+002
1.267061e+002, 3.911860e+002
1.271882e+002, 3.926416e+002
1.276703e+002, 3.898431e+002
1.281524e+002, 3.864074e+002
1.286345e+002, 3.867448e+002
1.291166e+002, 3.900708e+002
1.295988e+002, 3.928469e+002
1.300809e+002, 3.930009e+002
1.305630e+002, 3.912035e+002
1.310451e+002, 3.899367e+002
1.315272e+002, 3.895321e+002
1.320093e+002, 3.888980e+002
1.324915e+002, 3.858057e+002
1.329736e+002, 3.802624e+002
1.334557e+002, 3.752147e+002
1.339378e+002, 3.729302e+002
1.344199e+002, 3.731748e+002
1.349020e+002, 3.718603e+002
1.353842e+002, 3.680224e+002
1.358663e+002, 3.633245e+002
1.363484e+002, 3.615424e+002
1.368305e+002, 3.632194e+002
1.373126e+002, 3.653089e+002
1.377947e+002, 3.657408e+002
1.382769e+002, 3.641733e+002
1.387590e+002, 3.632318e+002
1.392411e+002, 3.633457e+002
1.397232e+002, 3.642274e+002
1.402053e+002, 3.647100e+002
1.406874e+002, 3.646380e+002
1.411696e+002, 3.645190e+002
1.416517e+002, 3.649544e+002
1.421338e+002, 3.666844e+002
1.426159e+002, 3.669419e+002
1.430980e+002, 3.648315e+002
1.435801e+002, 3.606721e+002
1.440623e+002, 3.578916e+002
1.445444e+002, 3.572115e+002
1.450265e+002, 3.571579e+002
1.455086e+002, 3.565619e+002
1.459907e+002, 3.550024e+002
1.464728e+002, 3.535527e+002
1.469550e+002, 3.519344e+002
1.474371e+002, 3.500314e+002
1.479192e+002, 3.502000e+002
1.484013e+002, 3.546902e+002
1.488834e+002, 3.599151e+002
1.493655e+002, 3.625787e+002
1.498477e+002, 3.595654e+002
1.503298e+002, 3.572670e+002
1.508119e+002, 3.570230e+002
1.512940e+002, 3.592438e+002
1.517761e+002, 3.611185e+002
1.522583e+002, 3.626485e+002
1.527404e+002, 3.637432e+002
1.532225e+002, 3.643138e+002
1.537046e+002, 3.640330e+002
1.541867e+002, 3.635195e+002
1.546688e+002, 3.627657e+002
1.551510e+002, 3.615562e+002
1.556331e+002, 3.609914e+002
1.561152e+002, 3.622870e+002
1.565973e+002, 3.641002e+002
1.570794e+002, 3.646183e+002
1.575615e+002, 3.614870e+002
1.580437e+002, 3.586180e+002
1.585258e+002, 3.577615e+002
1.590079e+002, 3.597473e+002
1.594900e+002, 3.617911e+002
1.599721e+002, 3.634027e+002
1.604542e+002, 3.645152e+002
1.609364e+002, 3.650097e+002
1.614185e+002, 3.638041e+002
1.619006e+002, 3.626743e+002
1.623827e+002, 3.625974e+002
1.628648e+002, 3.638348e+002
1.633469e+002, 3.658662e+002
1.638291e+002, 3.688129e+002
1.643112e+002, 3.723934e+002
1.647933e+002, 3.760242e+002
1.652754e+002, 3.799821e+002
1.657575e+002, 3.835857e+002
1.662396e+002, 3.860703e+002
1.667218e+002, 3.864091e+002
1.672039e+002, 3.872969e+002
1.676860e+002, 3.905736e+002
1.681681e+002, 3.958015e+002
1.686502e+002, 4.017150e+002
1.691323e+002, 4.085006e+002
1.696145e+002, 4.151978e+002
1.700966e+002, 4.206608e+002
1.705787e+002, 4.239036e+002
1.710608e+002, 4.269438e+002
1.715429e+002, 4.317751e+002
1.720250e+002, 4.380687e+002
1.725072e+002, 4.439927e+002
1.729893e+002, 4.483812e+002
1.734714e+002, 4.518002e+002
1.739535e+002, 4.549547e+002
1.744356e+002, 4.577381e+002
1.749177e+002, 4.606646e+002
1.753999e+002, 4.649271e+002
1.758820e+002, 4.703117e+002
1.763641e+002, 4.747648e+002
1.768462e+002, 4.767777e+002
1.773283e+002, 4.769047e+002
1.778104e+002, 4.760536e+002
1.782926e+002, 4.737964e+002
1.787747e+002, 4.713293e+002
1.792568e+002, 4.708865e+002
1.797389e+002, 4.723564e+002
1.802210e+002, 4.734375e+002
1.807031e+002, 4.719536e+002
1.811853e+002, 4.685248e+002
1.816674e+002, 4.646640e+002
1.821495e+002, 4.603141e+002
1.826316e+002, 4.561390e+002
1.831137e+002, 4.536417e+002
1.835958e+002, 4.528145e+002
1.840780e+002, 4.527457e+002
1.845601e+002, 4.529974e+002
1.850422e+002, 4.534012e+002
1.855243e+002, 4.532221e+002
1.860064e+002, 4.518399e+002
1.864885e+002, 4.498336e+002
1.869707e+002, 4.486889e+002
1.874528e+002, 4.484151e+002
1.879349e+002, 4.488122e+002
1.884170e+002, 4.499185e+002
1.888991e+002, 4.516516e+002
1.893812e+002, 4.533268e+002
1.898634e+002, 4.547595e+002
1.903455e+002, 4.559791e+002
1.908276e+002, 4.570172e+002
1.913097e+002, 4.578354e+002
1.917918e+002, 4.587445e+002
1.922739e+002, 4.602632e+002
1.927561e+002, 4.623891e+002
1.932382e+002, 4.642172e+002
1.937203e+002, 4.654145e+002
1.942024e+002, 4.660493e+002
1.946845e+002, 4.665673e+002
1.951666e+002, 4.669630e+002
1.956488e+002, 4.671964e+002
1.961309e+002, 4.671057e+002
1.966130e+002, 4.666523e+002
1.970951e+002, 4.664088e+002
1.975772e+002, 4.668598e+002
1.980593e+002, 4.678554e+002
1.985415e+002, 4.675998e+002
1.990236e+002, 4.658842e+002
1.995057e+002, 4.635217e+002
1.999878e+002, 4.614273e+002
2.004699e+002, 4.595933e+002
2.009520e+002, 4.582289e+002
2.014342e+002, 4.577508e+002
2.019163e+002, 4.581207e+002
2.023984e+002, 4.573220e+002
2.028805e+002, 4.550662e+002
2.033626e+002, 4.522538e+002
2.038447e+002, 4.502850e+002
2.043269e+002, 4.494754e+002
2.048090e+002, 4.479456e+002
2.052911e+002, 4.447896e+002
2.057732e+002, 4.399333e+002
2.062553e+002, 4.359329e+002
2.067374e+002, 4.329606e+002
2.072196e+002, 4.305424e+002
2.077017e+002, 4.281717e+002
2.081838e+002, 4.259804e+002
2.086659e+002, 4.232606e+002
2.091480e+002, 4.193637e+002
2.096301e+002, 4.140318e+002
2.101123e+002, 4.108644e+002
2.105944e+002, 4.107453e+002
2.110765e+002, 4.115721e+002
2.115586e+002, 4.101616e+002
2.120407e+002, 4.056485e+002
2.125228e+002, 4.013141e+002
2.130050e+002, 3.981998e+002
2.134871e+002, 3.964041e+002
2.139692e+002, 3.949590e+002
2.144513e+002, 3.939060e+002
2.149334e+002, 3.931593e+002
2.154155e+002, 3.925826e+002
2.158977e+002, 3.921606e+002
2.163798e+002, 3.919655e+002
2.168619e+002, 3.921554e+002
2.173440e+002, 3.928467e+002
2.178261e+002, 3.929190e+002
2.183082e+002, 3.920414e+002
2.187904e+002, 3.908871e+002
2.192725e+002, 3.903593e+002
2.197546e+002, 3.905004e+002
2.202367e+002, 3.912248e+002
2.207188e+002, 3.927272e+002
2.212009e+002, 3.952518e+002
2.216831e+002, 3.969913e+002
2.221652e+002, 3.978231e+002
2.226473e+002, 3.980008e+002
2.231294e+002, 3.975641e+002
2.236115e+002, 3.954474e+002
2.240936e+002, 3.948975e+002
2.245758e+002, 3.972943e+002
2.250579e+002, 4.032336e+002
2.255400e+002, 4.077079e+002
2.260221e+002, 4.099384e+002
2.265042e+002, 4.113963e+002
2.269863e+002, 4.139470e+002
2.274685e+002, 4.179966e+002
2.279506e+002, 4.224233e+002
2.284327e+002, 4.269050e+002
2.289148e+002, 4.314291e+002
2.293969e+002, 4.364764e+002
2.298790e+002, 4.426197e+002
2.303612e+002, 4.487791e+002
2.308433e+002, 4.535233e+002
2.313254e+002, 4.561152e+002
2.318075e+002, 4.586848e+002
2.322896e+002, 4.616788e+002
2.327717e+002, 4.650841e+002
2.332539e+002, 4.689232e+002
2.337360e+002, 4.733468e+002
2.342181e+002, 4.779755e+002
2.347002e+002, 4.824897e+002
2.351823e+002, 4.871310e+002
2.356644e+002, 4.912102e+002
2.361466e+002, 4.947772e+002
2.366287e+002, 4.979242e+002
2.371108e+002, 4.993669e+002
2.375929e+002, 4.981143e+002
2.380750e+002, 4.960703e+002
2.385571e+002, 4.953209e+002
2.390393e+002, 4.968553e+002
2.395214e+002, 4.978607e+002
2.400035e+002, 4.975985e+002
2.404856e+002, 4.959743e+002
2.409677e+002, 4.949630e+002
2.414498e+002, 4.952718e+002
2.419320e+002, 4.955023e+002
2.424141e+002, 4.941364e+002
2.428962e+002, 4.899155e+002
2.433783e+002, 4.864872e+002
2.438604e+002, 4.849600e+002
2.443425e+002, 4.853208e+002
2.448247e+002, 4.839359e+002
2.453068e+002, 4.796358e+002
2.457889e+002, 4.747997e+002
2.462710e+002, 4.716403e+002
2.467531e+002, 4.717331e+002
2.472352e+002, 4.703180e+002
2.477174e+002, 4.661327e+002
2.481995e+002, 4.594023e+002
2.486816e+002, 4.537779e+002
2.491637e+002, 4.499471e+002
2.496458e+002, 4.464204e+002
2.501279e+002, 4.419118e+002
2.506101e+002, 4.354460e+002
2.510922e+002, 4.301159e+002
2.515743e+002, 4.267101e+002
2.520564e+002, 4.249648e+002
2.525385e+002, 4.228044e+002
2.530206e+002, 4.200339e+002
2.535028e+002, 4.170936e+002
2.539849e+002, 4.144085e+002
2.544670e+002, 4.122276e+002
2.549491e+002, 4.095029e+002
2.554312e+002, 4.055186e+002
2.559133e+002, 4.008089e+002
2.563955e+002, 3.983257e+002
2.568776e+002, 3.993307e+002
2.573597e+002, 4.006030e+002
2.578418e+002, 3.999506e+002
2.583239e+002, 3.963271e+002
2.588061e+002, 3.936300e+002
2.592882e+002, 3.926068e+002
2.597703e+002, 3.926217e+002
2.602524e+002, 3.911702e+002
2.607345e+002, 3.875010e+002
2.612166e+002, 3.837369e+002
2.616988e+002, 3.808973e+002
2.621809e+002, 3.790315e+002
2.626630e+002, 3.782706e+002
2.631451e+002, 3.792138e+002
2.636272e+002, 3.810199e+002
2.641093e+002, 3.813211e+002
2.645915e+002, 3.797541e+002
2.650736e+002, 3.775451e+002
2.655557e+002, 3.749778e+002
2.660378e+002, 3.717360e+002
2.665199e+002, 3.697646e+002
2.670020e+002, 3.695825e+002
2.674842e+002, 3.703123e+002
2.679663e+002, 3.700708e+002
2.684484e+002, 3.685741e+002
2.689305e+002, 3.669243e+002
2.694126e+002, 3.655272e+002
2.698947e+002, 3.643406e+002
2.703769e+002, 3.635489e+002
2.708590e+002, 3.631897e+002
2.713411e+002, 3.631472e+002
2.718232e+002, 3.632796e+002
2.723053e+002, 3.636180e+002
2.727874e+002, 3.639876e+002
2.732696e+002, 3.645536e+002
2.737517e+002, 3.653754e+002
2.742338e+002, 3.647477e+002
2.747159e+002, 3.621346e+002
2.751980e+002, 3.590848e+002
2.756801e+002, 3.580504e+002
2.761623e+002, 3.594407e+002
2.766444e+002, 3.603678e+002
2.771265e+002, 3.596232e+002
2.776086e+002, 3.573624e+002
2.780907e+002, 3.563656e+002
2.785728e+002, 3.569204e+002
2.790550e+002, 3.579158e+002
2.795371e+002, 3.583396e+002
2.800192e+002, 3.582233e+002
2.805013e+002, 3.571540e+002
2.809834e+002, 3.547437e+002
2.814655e+002, 3.512895e+002
2.819477e+002, 3.480356e+002
2.824298e+002, 3.448633e+002
2.829119e+002, 3.425892e+002
2.833940e+002, 3.426703e+002
2.838761e+002, 3.450507e+002
2.843582e+002, 3.462739e+002
2.848404e+002, 3.453368e+002
2.853225e+002, 3.428803e+002
2.858046e+002, 3.408055e+002
2.862867e+002, 3.391611e+002
2.867688e+002, 3.375379e+002
2.872509e+002, 3.355974e+002
2.877331e+002, 3.333695e+002
2.882152e+002, 3.310637e+002
2.886973e+002, 3.285581e+002
2.891794e+002, 3.261816e+002
2.896615e+002, 3.246459e+002
2.901436e+002, 3.239366e+002
2.906258e+002, 3.238446e+002
2.911079e+002, 3.247816e+002
2.915900e+002, 3.263672e+002
2.920721e+002, 3.268525e+002
2.925542e+002, 3.258717e+002
2.930363e+002, 3.241239e+002
2.935185e+002, 3.224846e+002
2.940006e+002, 3.209549e+002
2.944827e+002, 3.196661e+002
2.949648e+002, 3.185966e+002
2.954469e+002, 3.177973e+002
2.959290e+002, 3.176152e+002
2.964112e+002, 3.182144e+002
2.968933e+002, 3.187379e+002
2.973754e+002, 3.177292e+002
2.978575e+002, 3.156244e+002
2.983396e+002, 3.140193e+002
2.988217e+002, 3.138407e+002
2.993039e+002, 3.146330e+002
2.997860e+002, 3.159509e+002
3.002681e+002, 3.178616e+002
3.007502e+002, 3.192797e+002
3.012323e+002, 3.185120e+002
3.017144e+002, 3.163809e+002
3.021966e+002, 3.149007e+002
3.026787e+002, 3.154999e+002
3.031608e+002, 3.167830e+002
3.036429e+002, 3.167628e+002
3.041250e+002, 3.155172e+002
3.046071e+002, 3.145704e+002
3.050893e+002, 3.157225e+002
3.055714e+002, 3.178595e+002
3.060535e+002, 3.191125e+002
3.065356e+002, 3.182849e+002
3.070177e+002, 3.170240e+002
3.074998e+002, 3.169147e+002
3.079820e+002, 3.177687e+002
3.084641e+002, 3.185988e+002
3.089462e+002, 3.186148e+002
3.094283e+002, 3.183461e+002
3.099104e+002, 3.183765e+002
3.103925e+002, 3.189226e+002
3.108747e+002, 3.196518e+002
3.113568e+002, 3.205455e+002
3.118389e+002, 3.214753e+002
3.123210e+002, 3.220792e+002
3.128031e+002, 3.218109e+002
3.132852e+002, 3.213767e+002
3.137674e+002, 3.214064e+002
3.142495e+002, 3.222065e+002
3.147316e+002, 3.228323e+002
3.152137e+002, 3.222429e+002
3.156958e+002, 3.212250e+002
3.161779e+002, 3.211227e+002
3.166601e+002, 3.233232e+002
3.171422e+002, 3.258791e+002
3.176243e+002, 3.280736e+002
3.181064e+002, 3.299433e+002
3.185885e+002, 3.305512e+002
3.190706e+002, 3.274256e+002
3.195528e+002, 3.235983e+002
3.200349e+002, 3.225140e+002
3.205170e+002, 3.291082e+002
3.209991e+002, 3.347339e+002
3.214812e+002, 3.359365e+002
3.219633e+002, 3.325762e+002
3.224455e+002, 3.298159e+002
3.229276e+002, 3.289433e+002
3.234097e+002, 3.289330e+002
3.238918e+002, 3.290171e+002
3.243739e+002, 3.299083e+002
3.248560e+002, 3.299783e+002
3.253382e+002, 3.283615e+002
3.258203e+002, 3.253915e+002
3.263024e+002, 3.233680e+002
3.267845e+002, 3.227756e+002
3.272666e+002, 3.229092e+002
3.277487e+002, 3.234773e+002
3.282309e+002, 3.258609e+002
3.287130e+002, 3.267520e+002
3.291951e+002, 3.253898e+002
3.296772e+002, 3.225575e+002
3.301593e+002, 3.201517e+002
3.306414e+002, 3.176742e+002
3.311236e+002, 3.162407e+002
3.316057e+002, 3.165096e+002
3.320878e+002, 3.194566e+002
3.325699e+002, 3.211259e+002
3.330520e+002, 3.209870e+002
3.335341e+002, 3.199074e+002
3.340163e+002, 3.191735e+002
3.344984e+002, 3.191996e+002
3.349805e+002, 3.187430e+002
3.354626e+002, 3.171216e+002
3.359447e+002, 3.142266e+002
3.364268e+002, 3.130317e+002
3.369090e+002, 3.141390e+002
3.373911e+002, 3.160063e+002
3.378732e+002, 3.172763e+002
3.383553e+002, 3.180069e+002
3.388374e+002, 3.177477e+002
3.393195e+002, 3.158221e+002
3.398017e+002, 3.129175e+002
3.402838e+002, 3.125498e+002
3.407659e+002, 3.154131e+002
3.412480e+002, 3.183379e+002
3.417301e+002, 3.187750e+002
3.422122e+002, 3.165964e+002
3.426944e+002, 3.150430e+002
3.431765e+002, 3.143798e+002
3.436586e+002, 3.145932e+002
3.441407e+002, 3.162323e+002
3.446228e+002, 3.193412e+002
3.451049e+002, 3.217413e+002
3.455871e+002, 3.215475e+002
3.460692e+002, 3.193611e+002
3.465513e+002, 3.186607e+002
3.470334e+002, 3.197364e+002
3.475155e+002, 3.215251e+002
3.479977e+002, 3.231651e+002
3.484798e+002, 3.245276e+002
3.489619e+002, 3.247986e+002
3.494440e+002, 3.226006e+002
3.499261e+002, 3.194454e+002
3.504082e+002, 3.184795e+002
3.508904e+002, 3.196960e+002
3.513725e+002, 3.217654e+002
3.518546e+002, 3.244981e+002
3.523367e+002, 3.271919e+002
3.528188e+002, 3.282368e+002
3.533009e+002, 3.261950e+002
3.537831e+002, 3.235301e+002
3.542652e+002, 3.231202e+002
3.547473e+002, 3.245745e+002
3.552294e+002, 3.261112e+002
3.557115e+002, 3.269788e+002
3.561936e+002, 3.271809e+002
3.566758e+002, 3.266199e+002
3.571579e+002, 3.250866e+002
3.576400e+002, 3.233546e+002
3.581221e+002, 3.215848e+002
3.586042e+002, 3.200323e+002
3.590863e+002, 3.191598e+002
3.595685e+002, 3.201659e+002
3.600506e+002, 3.211924e+002
3.605327e+002, 3.209919e+002
3.610148e+002, 3.193599e+002
3.614969e+002, 3.174974e+002
3.619790e+002, 3.156382e+002
3.624612e+002, 3.139102e+002
3.629433e+002, 3.124242e+002
3.634254e+002, 3.111313e+002
3.639075e+002, 3.101512e+002
3.643896e+002, 3.097146e+002
3.648717e+002, 3.097492e+002
3.653539e+002, 3.095069e+002
3.658360e+002, 3.081609e+002
3.663181e+002, 3.069245e+002
3.668002e+002, 3.065130e+002
3.672823e+002, 3.081499e+002
3.677644e+002, 3.091436e+002
3.682466e+002, 3.091288e+002
3.687287e+002, 3.083328e+002
3.692108e+002, 3.074131e+002
3.696929e+002, 3.062019e+002
3.701750e+002, 3.050403e+002
3.706571e+002, 3.041644e+002
3.711393e+002, 3.038814e+002
3.716214e+002, 3.027477e+002
3.721035e+002, 2.998926e+002
3.725856e+002, 2.968172e+002
3.730677e+002, 2.956187e+002
3.735498e+002, 2.972163e+002
3.740320e+002, 2.987251e+002
3.745141e+002, 2.996711e+002
3.749962e+002, 3.000370e+002
3.754783e+002, 2.992943e+002
3.759604e+002, 2.971116e+002
3.764425e+002, 2.945842e+002
3.769247e+002, 2.923195e+002
3.774068e+002, 2.902084e+002
3.778889e+002, 2.895595e+002
3.783710e+002, 2.910953e+002
3.788531e+002, 2.936437e+002
3.793352e+002, 2.941079e+002
3.798174e+002, 2.923055e+002
3.802995e+002, 2.905414e+002
3.807816e+002, 2.903689e+002
3.812637e+002, 2.915045e+002
3.817458e+002, 2.919712e+002
3.822279e+002, 2.915558e+002
3.827101e+002, 2.909880e+002
3.831922e+002, 2.913145e+002
3.836743e+002, 2.923456e+002
3.841564e+002, 2.931939e+002
3.846385e+002, 2.936353e+002
3.851206e+002, 2.936211e+002
3.856028e+002, 2.928190e+002
3.860849e+002, 2.912749e+002
3.865670e+002, 2.898583e+002
3.870491e+002, 2.890447e+002
3.875312e+002, 2.888520e+002
3.880133e+002, 2.895124e+002
3.884955e+002, 2.918034e+002
3.889776e+002, 2.936769e+002
3.894597e+002, 2.924951e+002
3.899418e+002, 2.892686e+002
3.904239e+002, 2.868788e+002
3.909060e+002, 2.874865e+002
3.913882e+002, 2.891097e+002
3.918703e+002, 2.903723e+002
3.923524e+002, 2.911544e+002
3.928345e+002, 2.913849e+002
3.933166e+002, 2.905366e+002
3.937987e+002, 2.892609e+002
3.942809e+002, 2.883923e+002
3.947630e+002, 2.885515e+002
3.952451e+002, 2.887780e+002
3.957272e+002, 2.887198e+002
3.962093e+002, 2.883862e+002
3.966914e+002, 2.881357e+002
3.971736e+002, 2.879451e+002
3.976557e+002, 2.879197e+002
3.981378e+002, 2.881225e+002
3.986199e+002, 2.882873e+002
3.991020e+002, 2.890320e+002
3.995841e+002, 2.910485e+002
4.000663e+002, 2.936219e+002
4.005484e+002, 2.950022e+002
4.010305e+002, 2.943269e+002
4.015126e+002, 2.935383e+002
4.019947e+002, 2.933183e+002
4.024768e+002, 2.938407e+002
4.029590e+002, 2.939904e+002
4.034411e+002, 2.936275e+002
4.039232e+002, 2.930546e+002
4.044053e+002, 2.926385e+002
4.048874e+002, 2.924770e+002
4.053695e+002, 2.920576e+002
4.058517e+002, 2.909427e+002
4.063338e+002, 2.895535e+002
4.068159e+002, 2.901111e+002
4.072980e+002, 2.930575e+002
4.077801e+002, 2.958284e+002
4.082622e+002, 2.961089e+002
4.087444e+002, 2.941477e+002
4.092265e+002, 2.935494e+002
4.097086e+002, 2.948420e+002
4.101907e+002, 2.970554e+002
4.106728e+002, 2.990529e+002
4.111549e+002, 3.007851e+002
4.116371e+002, 3.018748e+002
4.121192e+002, 3.018319e+002
4.126013e+002, 3.010919e+002
4.130834e+002, 3.003615e+002
4.135655e+002, 2.996422e+002
4.140476e+002, 2.992308e+002
4.145298e+002, 2.996129e+002
4.150119e+002, 3.004138e+002
4.154940e+002, 3.009967e+002
4.159761e+002, 3.010045e+002
4.164582e+002, 3.010147e+002
4.169403e+002, 3.017063e+002
4.174225e+002, 3.028304e+002
4.179046e+002, 3.036628e+002
4.183867e+002, 3.034146e+002
4.188688e+002, 3.030181e+002
4.193509e+002, 3.031727e+002
4.198330e+002, 3.040667e+002
4.203152e+002, 3.049662e+002
4.207973e+002, 3.055892e+002
4.212794e+002, 3.060747e+002
4.217615e+002, 3.065863e+002
4.222436e+002, 3.071030e+002
4.227257e+002, 3.077134e+002
4.232079e+002, 3.084304e+002
4.236900e+002, 3.092544e+002
4.241721e+002, 3.102161e+002
4.246542e+002, 3.113625e+002
4.251363e+002, 3.126131e+002
4.256184e+002, 3.139854e+002
4.261006e+002, 3.158189e+002
4.265827e+002, 3.170509e+002
4.270648e+002, 3.172121e+002
4.275469e+002, 3.169997e+002
4.280290e+002, 3.176571e+002
4.285111e+002, 3.193657e+002
4.289933e+002, 3.215865e+002
4.294754e+002, 3.246053e+002
4.299575e+002, 3.283567e+002
4.304396e+002, 3.295805e+002
4.309217e+002, 3.273891e+002
4.314038e+002, 3.252845e+002
4.318860e+002, 3.271767e+002
4.323681e+002, 3.331215e+002
4.328502e+002, 3.372124e+002
4.333323e+002, 3.381860e+002
4.338144e+002, 3.374523e+002
4.342965e+002, 3.373447e+002
4.347787e+002, 3.378800e+002
4.352608e+002, 3.392793e+002
4.357429e+002, 3.423333e+002
4.362250e+002, 3.462364e+002
4.367071e+002, 3.490291e+002
4.371892e+002, 3.505796e+002
4.376714e+002, 3.519575e+002
4.381535e+002, 3.544116e+002
4.386356e+002, 3.573342e+002
4.391177e+002, 3.595786e+002
4.395998e+002, 3.600546e+002
4.400819e+002, 3.605739e+002
4.405641e+002, 3.627796e+002
4.410462e+002, 3.663212e+002
4.415283e+002, 3.699512e+002
4.420104e+002, 3.733758e+002
4.424925e+002, 3.764120e+002
4.429746e+002, 3.785659e+002
4.434568e+002, 3.792961e+002
4.439389e+002, 3.811024e+002
4.444210e+002, 3.857972e+002
4.449031e+002, 3.916407e+002
4.453852e+002, 3.965726e+002
4.458673e+002, 3.990317e+002
4.463495e+002, 4.017078e+002
4.468316e+002, 4.052193e+002
4.473137e+002, 4.095225e+002
4.477958e+002, 4.138386e+002
4.482779e+002, 4.178483e+002
4.487600e+002, 4.221321e+002
4.492422e+002, 4.270891e+002
4.497243e+002, 4.334385e+002
4.502064e+002, 4.388054e+002
4.506885e+002, 4.431094e+002
4.511706e+002, 4.466382e+002
4.516527e+002, 4.495269e+002
4.521349e+002, 4.514528e+002
4.526170e+002, 4.542626e+002
4.530991e+002, 4.586927e+002
4.535812e+002, 4.645305e+002
4.540633e+002, 4.700876e+002
4.545454e+002, 4.753912e+002
4.550276e+002, 4.807261e+002
4.555097e+002, 4.863675e+002
4.559918e+002, 4.922600e+002
4.564739e+002, 4.979366e+002
4.569560e+002, 5.034765e+002
4.574381e+002, 5.085138e+002
4.579203e+002, 5.119121e+002
4.584024e+002, 5.142579e+002
4.588845e+002, 5.175234e+002
4.593666e+002, 5.235500e+002
4.598488e+002, 5.304508e+002
4.603309e+002, 5.362977e+002
4.608130e+002, 5.410278e+002
4.612951e+002, 5.447689e+002
4.617772e+002, 5.466876e+002
4.622593e+002, 5.480073e+002
4.627415e+002, 5.499514e+002
4.632236e+002, 5.534012e+002
4.637057e+002, 5.564416e+002
4.641878e+002, 5.586260e+002
4.646699e+002, 5.598335e+002
4.651520e+002, 5.598429e+002
4.656342e+002, 5.572043e+002
4.661163e+002, 5.546943e+002
4.665984e+002, 5.535311e+002
4.670805e+002, 5.540565e+002
4.675626e+002, 5.533311e+002
4.680447e+002, 5.500191e+002
4.685269e+002, 5.464849e+002
4.690090e+002, 5.443882e+002
4.694911e+002, 5.447110e+002
4.699732e+002, 5.445304e+002
4.704553e+002, 5.438654e+002
4.709374e+002, 5.424843e+002
4.714196e+002, 5.395637e+002
4.719017e+002, 5.346671e+002
4.723838e+002, 5.298701e+002
4.728659e+002, 5.259654e+002
4.733480e+002, 5.228827e+002
4.738301e+002, 5.199604e+002
4.743123e+002, 5.171390e+002
4.747944e+002, 5.147810e+002
4.752765e+002, 5.132886e+002
4.757586e+002, 5.125740e+002
4.762407e+002, 5.122343e+002
4.767228e+002, 5.121632e+002
4.772050e+002, 5.125151e+002
4.776871e+002, 5.140862e+002
4.781692e+002, 5.163745e+002
4.786513e+002, 5.177655e+002
4.791334e+002, 5.157757e+002
4.796155e+002, 5.134909e+002
4.800977e+002, 5.143434e+002
4.805798e+002, 5.183966e+002
4.810619e+002, 5.225685e+002
4.815440e+002, 5.250428e+002
4.820261e+002, 5.267905e+002
4.825082e+002, 5.287247e+002
4.829904e+002, 5.314103e+002
4.834725e+002, 5.337689e+002
4.839546e+002, 5.349325e+002
4.844367e+002, 5.356012e+002
4.849188e+002, 5.372353e+002
4.854009e+002, 5.416769e+002
4.858831e+002, 5.454767e+002
4.863652e+002, 5.474972e+002
4.868473e+002, 5.475740e+002
4.873294e+002, 5.482877e+002
4.878115e+002, 5.506541e+002
4.882936e+002, 5.524675e+002
4.887758e+002, 5.517128e+002
4.892579e+002, 5.471235e+002
4.897400e+002, 5.447162e+002
4.902221e+002, 5.458296e+002
4.907042e+002, 5.482296e+002
4.911863e+002, 5.473333e+002
4.916685e+002, 5.429723e+002
4.921506e+002, 5.381595e+002
4.926327e+002, 5.340675e+002
4.931148e+002, 5.304437e+002
4.935969e+002, 5.265954e+002
4.940790e+002, 5.224745e+002
4.945612e+002, 5.185729e+002
4.950433e+002, 5.158050e+002
4.955254e+002, 5.134124e+002
4.960075e+002, 5.096265e+002
4.964896e+002, 5.037300e+002
4.969717e+002, 4.977640e+002
4.974539e+002, 4.934906e+002
4.979360e+002, 4.905156e+002
4.984181e+002, 4.882625e+002
4.989002e+002, 4.884606e+002
4.993823e+002, 4.875386e+002
4.998644e+002, 4.827122e+002
5.003466e+002, 4.743452e+002
5.008287e+002, 4.668673e+002
5.013108e+002, 4.612505e+002
5.017929e+002, 4.571852e+002
5.022750e+002, 4.547692e+002
5.027571e+002, 4.557691e+002
5.032393e+002, 4.549125e+002
5.037214e+002, 4.514058e+002
5.042035e+002, 4.463600e+002
5.046856e+002, 4.409584e+002
5.051677e+002, 4.344359e+002
5.056498e+002, 4.292460e+002
5.061320e+002, 4.262922e+002
5.066141e+002, 4.250313e+002
5.070962e+002, 4.226004e+002
5.075783e+002, 4.187889e+002
5.080604e+002, 4.146825e+002
5.085425e+002, 4.108619e+002
5.090247e+002, 4.073080e+002
5.095068e+002, 4.038154e+002
5.099889e+002, 4.003378e+002
5.104710e+002, 3.971168e+002
5.109531e+002, 3.946829e+002
5.114352e+002, 3.927620e+002
5.119174e+002, 3.905129e+002
5.123995e+002, 3.875091e+002
5.128816e+002, 3.843078e+002
5.133637e+002, 3.812633e+002
5.138458e+002, 3.784540e+002
5.143279e+002, 3.761266e+002
5.148101e+002, 3.748541e+002
5.152922e+002, 3.737986e+002
5.157743e+002, 3.725272e+002
5.162564e+002, 3.710342e+002
5.167385e+002, 3.689079e+002
5.172206e+002, 3.646951e+002
5.177028e+002, 3.605376e+002
5.181849e+002, 3.581761e+002
5.186670e+002, 3.601329e+002
5.191491e+002, 3.610577e+002
5.196312e+002, 3.599962e+002
5.201133e+002, 3.578185e+002
5.205955e+002, 3.564515e+002
5.210776e+002, 3.566281e+002
5.215597e+002, 3.562277e+002
5.220418e+002, 3.542962e+002
5.225239e+002, 3.509326e+002
5.230060e+002, 3.488410e+002
5.234882e+002, 3.482212e+002
5.239703e+002, 3.480856e+002
5.244524e+002, 3.478369e+002
5.249345e+002, 3.474468e+002
5.254166e+002, 3.465198e+002
5.258987e+002, 3.448617e+002
5.263809e+002, 3.431805e+002
5.268630e+002, 3.425663e+002
5.273451e+002, 3.427023e+002
5.278272e+002, 3.425929e+002
5.283093e+002, 3.415410e+002
5.287914e+002, 3.403243e+002
5.292736e+002, 3.396728e+002
5.297557e+002, 3.395432e+002
5.302378e+002, 3.397574e+002
5.307199e+002, 3.409781e+002
5.312020e+002, 3.419907e+002
5.316841e+002, 3.418575e+002
5.321663e+002, 3.402774e+002
5.326484e+002, 3.384774e+002
5.331305e+002, 3.367109e+002
5.336126e+002, 3.348932e+002
5.340947e+002, 3.328993e+002
5.345768e+002, 3.295120e+002
5.350590e+002, 3.276167e+002
5.355411e+002, 3.281342e+002
5.360232e+002, 3.301516e+002
5.365053e+002, 3.311708e+002
5.369874e+002, 3.309125e+002
5.374695e+002, 3.302772e+002
5.379517e+002, 3.292656e+002
5.384338e+002, 3.279838e+002
5.389159e+002, 3.283751e+002
5.393980e+002, 3.306866e+002
5.398801e+002, 3.331407e+002
5.403622e+002, 3.341361e+002
5.408444e+002, 3.339494e+002
5.413265e+002, 3.337383e+002
5.418086e+002, 3.336891e+002
5.422907e+002, 3.335315e+002
5.427728e+002, 3.327101e+002
5.432549e+002, 3.315543e+002
5.437371e+002, 3.307916e+002
5.442192e+002, 3.309254e+002
5.447013e+002, 3.313942e+002
5.451834e+002, 3.322818e+002
5.456655e+002, 3.333220e+002
5.461476e+002, 3.333874e+002
5.466298e+002, 3.307004e+002
5.471119e+002, 3.279891e+002
5.475940e+002, 3.268659e+002
5.480761e+002, 3.279807e+002
5.485582e+002, 3.286391e+002
5.490403e+002, 3.277173e+002
5.495225e+002, 3.268742e+002
5.500046e+002, 3.276470e+002
5.504867e+002, 3.314317e+002
5.509688e+002, 3.336601e+002
5.514509e+002, 3.333837e+002
5.519330e+002, 3.317628e+002
5.524152e+002, 3.315353e+002
5.528973e+002, 3.329459e+002
5.533794e+002, 3.337518e+002
5.538615e+002, 3.326435e+002
5.543436e+002, 3.304041e+002
5.548257e+002, 3.298781e+002
5.553079e+002, 3.310393e+002
5.557900e+002, 3.326060e+002
5.562721e+002, 3.339304e+002
5.567542e+002, 3.349218e+002
5.572363e+002, 3.351368e+002
5.577184e+002, 3.343439e+002
5.582006e+002, 3.340450e+002
5.586827e+002, 3.362720e+002
5.591648e+002, 3.393517e+002
5.596469e+002, 3.411997e+002
5.601290e+002, 3.402075e+002
5.606111e+002, 3.388783e+002
5.610933e+002, 3.377910e+002
5.615754e+002, 3.369490e+002
5.620575e+002, 3.363809e+002
5.625396e+002, 3.361577e+002
5.630217e+002, 3.361512e+002
5.635038e+002, 3.364389e+002
5.639860e+002, 3.370446e+002
5.644681e+002, 3.372331e+002
5.649502e+002, 3.367844e+002
5.654323e+002, 3.363265e+002
5.659144e+002, 3.364539e+002
5.663965e+002, 3.372404e+002
5.668787e+002, 3.373383e+002
5.673608e+002, 3.364873e+002
5.678429e+002, 3.354651e+002
5.683250e+002, 3.354831e+002
5.688071e+002, 3.363165e+002
5.692892e+002, 3.370217e+002
5.697714e+002, 3.373181e+002
5.702535e+002, 3.373179e+002
5.707356e+002, 3.369872e+002
5.712177e+002, 3.364332e+002
5.716998e+002, 3.360324e+002
5.721819e+002, 3.357797e+002
5.726641e+002, 3.358877e+002
5.731462e+002, 3.366935e+002
5.736283e+002, 3.382272e+002
5.741104e+002, 3.394979e+002
5.745925e+002, 3.405567e+002
5.750746e+002, 3.410219e+002
5.755568e+002, 3.405494e+002
5.760389e+002, 3.380740e+002
5.765210e+002, 3.366234e+002
5.770031e+002, 3.368033e+002
5.774852e+002, 3.375625e+002
5.779673e+002, 3.374026e+002
5.784495e+002, 3.359569e+002
5.789316e+002, 3.348902e+002
5.794137e+002, 3.345089e+002
5.798958e+002, 3.347511e+002
5.803779e+002, 3.357679e+002
5.808600e+002, 3.375456e+002
5.813422e+002, 3.388629e+002
5.818243e+002, 3.382808e+002
5.823064e+002, 3.369635e+002
5.827885e+002, 3.378093e+002
5.832706e+002, 3.407728e+002
5.837527e+002, 3.435213e+002
5.842349e+002, 3.443001e+002
5.847170e+002, 3.440047e+002
5.851991e+002, 3.434949e+002
5.856812e+002, 3.428280e+002
5.861633e+002, 3.422457e+002
5.866454e+002, 3.422136e+002
5.871276e+002, 3.421844e+002
5.876097e+002, 3.414982e+002
5.880918e+002, 3.379994e+002
5.885739e+002, 3.363668e+002
5.890560e+002, 3.383395e+002
5.895381e+002, 3.424872e+002
5.900203e+002, 3.444475e+002
5.905024e+002, 3.432353e+002
5.909845e+002, 3.420885e+002
5.914666e+002, 3.423600e+002
5.919487e+002, 3.438192e+002
5.924308e+002, 3.440688e+002
5.929130e+002, 3.429317e+002
5.933951e+002, 3.420401e+002
5.938772e+002, 3.432251e+002
5.943593e+002, 3.456690e+002
5.948414e+002, 3.468543e+002
5.953235e+002, 3.464170e+002
5.958057e+002, 3.455494e+002
5.962878e+002, 3.451240e+002
5.967699e+002, 3.450302e+002
5.972520e+002, 3.451057e+002
5.977341e+002, 3.452696e+002
5.982162e+002, 3.456280e+002
5.986984e+002, 3.464286e+002
5.991805e+002, 3.474413e+002
5.996626e+002, 3.482111e+002
6.001447e+002, 3.484121e+002
6.006268e+002, 3.486088e+002
6.011089e+002, 3.490732e+002
6.015911e+002, 3.497477e+002
6.020732e+002, 3.499472e+002
6.025553e+002, 3.496287e+002
6.030374e+002, 3.489109e+002
6.035195e+002, 3.474345e+002
6.040016e+002, 3.451102e+002
6.044838e+002, 3.448795e+002
6.049659e+002, 3.470488e+002
6.054480e+002, 3.498704e+002
6.059301e+002, 3.518216e+002
6.064122e+002, 3.529683e+002
6.068943e+002, 3.534641e+002
6.073765e+002, 3.531721e+002
6.078586e+002, 3.527629e+002
6.083407e+002, 3.529272e+002
6.088228e+002, 3.534617e+002
6.093049e+002, 3.539923e+002
6.097870e+002, 3.542504e+002
6.102692e+002, 3.545909e+002
6.107513e+002, 3.555594e+002
6.112334e+002, 3.568244e+002
6.117155e+002, 3.571968e+002
6.121976e+002, 3.550663e+002
6.126797e+002, 3.533836e+002
6.131619e+002, 3.531528e+002
6.136440e+002, 3.544328e+002
6.141261e+002, 3.559595e+002
6.146082e+002, 3.578867e+002
6.150903e+002, 3.598065e+002
6.155724e+002, 3.618057e+002
6.160546e+002, 3.639101e+002
6.165367e+002, 3.640341e+002
6.170188e+002, 3.617229e+002
6.175009e+002, 3.589510e+002
6.179830e+002, 3.577468e+002
6.184651e+002, 3.579341e+002
6.189473e+002, 3.592552e+002
6.194294e+002, 3.623326e+002
6.199115e+002, 3.650509e+002
6.203936e+002, 3.646259e+002
6.208757e+002, 3.624912e+002
6.213578e+002, 3.615549e+002
6.218400e+002, 3.647325e+002
6.223221e+002, 3.676432e+002
6.228042e+002, 3.679462e+002
6.232863e+002, 3.660792e+002
6.237684e+002, 3.651655e+002
6.242505e+002, 3.667358e+002
6.247327e+002, 3.679341e+002
6.252148e+002, 3.674413e+002
6.256969e+002, 3.649959e+002
6.261790e+002, 3.641360e+002
6.266611e+002, 3.653760e+002
6.271432e+002, 3.668759e+002
6.276254e+002, 3.668989e+002
6.281075e+002, 3.656275e+002
6.285896e+002, 3.652895e+002
6.290717e+002, 3.661932e+002
6.295538e+002, 3.674489e+002
6.300359e+002, 3.681296e+002
6.305181e+002, 3.684111e+002
6.310002e+002, 3.686858e+002
6.314823e+002, 3.691777e+002
6.319644e+002, 3.695282e+002
6.324465e+002, 3.691462e+002
6.329286e+002, 3.684779e+002
6.334108e+002, 3.684092e+002
6.338929e+002, 3.704531e+002
6.343750e+002, 3.718441e+002
6.348571e+002, 3.709773e+002
6.353392e+002, 3.683238e+002
6.358214e+002, 3.676136e+002
6.363035e+002, 3.704937e+002
6.367856e+002, 3.725935e+002
6.372677e+002, 3.716245e+002
6.377498e+002, 3.675853e+002
6.382319e+002, 3.653383e+002
6.387141e+002, 3.650053e+002
6.391962e+002, 3.656865e+002
6.396783e+002, 3.676037e+002
6.401604e+002, 3.700062e+002
6.406425e+002, 3.700057e+002
6.411246e+002, 3.670798e+002
6.416068e+002, 3.634428e+002
6.420889e+002, 3.600791e+002
6.425710e+002, 3.576396e+002
6.430531e+002, 3.573619e+002
6.435352e+002, 3.617539e+002
6.440173e+002, 3.647582e+002
6.444995e+002, 3.620006e+002
6.449816e+002, 3.566194e+002
6.454637e+002, 3.540551e+002
6.459458e+002, 3.583638e+002
6.464279e+002, 3.616774e+002
6.469100e+002, 3.625169e+002
6.473922e+002, 3.614346e+002
6.478743e+002, 3.605222e+002
6.483564e+002, 3.597131e+002
6.488385e+002, 3.592461e+002
6.493206e+002, 3.593485e+002
6.498027e+002, 3.598777e+002
6.502849e+002, 3.601319e+002
6.507670e+002, 3.601181e+002
6.512491e+002, 3.600396e+002
6.517312e+002, 3.601834e+002
6.522133e+002, 3.603130e+002
6.526954e+002, 3.599507e+002
6.531776e+002, 3.590047e+002
6.536597e+002, 3.582722e+002
6.541418e+002, 3.579899e+002
6.546239e+002, 3.582616e+002
6.551060e+002, 3.593508e+002
6.555881e+002, 3.627187e+002
6.560703e+002, 3.643072e+002
6.565524e+002, 3.622882e+002
6.570345e+002, 3.588377e+002
6.575166e+002, 3.563560e+002
6.579987e+002, 3.548056e+002
6.584808e+002, 3.543203e+002
6.589630e+002, 3.551452e+002
6.594451e+002, 3.567944e+002
6.599272e+002, 3.585645e+002
6.604093e+002, 3.604173e+002
6.608914e+002, 3.612271e+002
6.613735e+002, 3.599845e+002
6.618557e+002, 3.579208e+002
6.623378e+002, 3.570998e+002
6.628199e+002, 3.572792e+002
6.633020e+002, 3.573691e+002
6.637841e+002, 3.564784e+002
6.642662e+002, 3.555041e+002
6.647484e+002, 3.552350e+002
6.652305e+002, 3.557165e+002
6.657126e+002, 3.558199e+002
6.661947e+002, 3.542310e+002
6.666768e+002, 3.530712e+002
6.671589e+002, 3.536707e+002
6.676411e+002, 3.567615e+002
6.681232e+002, 3.586066e+002
6.686053e+002, 3.589494e+002
6.690874e+002, 3.584320e+002
6.695695e+002, 3.574580e+002
6.700516e+002, 3.560301e+002
6.705338e+002, 3.547410e+002
6.710159e+002, 3.536500e+002
6.714980e+002, 3.526951e+002
6.719801e+002, 3.516555e+002
6.724622e+002, 3.507086e+002
6.729443e+002, 3.503602e+002
6.734265e+002, 3.512041e+002
6.739086e+002, 3.519518e+002
6.743907e+002, 3.518245e+002
6.748728e+002, 3.510027e+002
6.753549e+002, 3.498264e+002
6.758370e+002, 3.474993e+002
6.763192e+002, 3.458448e+002
6.768013e+002, 3.458292e+002
6.772834e+002, 3.469313e+002
6.777655e+002, 3.471862e+002
6.782476e+002, 3.460588e+002
6.787297e+002, 3.453852e+002
6.792119e+002, 3.461113e+002
6.796940e+002, 3.478961e+002
6.801761e+002, 3.486487e+002
6.806582e+002, 3.483324e+002
6.811403e+002, 3.477648e+002
6.816224e+002, 3.473986e+002
6.821046e+002, 3.471766e+002
6.825867e+002, 3.471892e+002
6.830688e+002, 3.474227e+002
6.835509e+002, 3.471941e+002
6.840330e+002, 3.453704e+002
6.845151e+002, 3.433158e+002
6.849973e+002, 3.421707e+002
6.854794e+002, 3.422870e+002
6.859615e+002, 3.427436e+002
6.864436e+002, 3.436142e+002
6.869257e+002, 3.446384e+002
6.874078e+002, 3.457415e+002
6.878900e+002, 3.473532e+002
6.883721e+002, 3.476696e+002
6.888542e+002, 3.461345e+002
6.893363e+002, 3.440641e+002
6.898184e+002, 3.437810e+002
6.903005e+002, 3.450251e+002
6.907827e+002, 3.454036e+002
6.912648e+002, 3.438829e+002
6.917469e+002, 3.419982e+002
6.922290e+002, 3.419056e+002
6.927111e+002, 3.429765e+002
6.931932e+002, 3.438150e+002
6.936754e+002, 3.431098e+002
6.941575e+002, 3.427063e+002
6.946396e+002, 3.441568e+002
6.951217e+002, 3.467733e+002
6.956038e+002, 3.480090e+002
6.960859e+002, 3.461279e+002
6.965681e+002, 3.443886e+002
6.970502e+002, 3.438372e+002
6.975323e+002, 3.442775e+002
6.980144e+002, 3.434429e+002
6.984965e+002, 3.408827e+002
6.989786e+002, 3.390647e+002
6.994608e+002, 3.401387e+002
6.999429e+002, 3.432075e+002
7.004250e+002, 3.444121e+002
7.009071e+002, 3.438161e+002
7.013892e+002, 3.430570e+002
7.018713e+002, 3.435782e+002
7.023535e+002, 3.444852e+002
7.028356e+002, 3.445493e+002
7.033177e+002, 3.434142e+002
7.037998e+002, 3.431140e+002
7.042819e+002, 3.459908e+002
7.047640e+002, 3.490101e+002
7.052462e+002, 3.496054e+002
7.057283e+002, 3.459639e+002
7.062104e+002, 3.435978e+002
7.066925e+002, 3.425829e+002
7.071746e+002, 3.427336e+002
7.076567e+002, 3.442861e+002
7.081389e+002, 3.473134e+002
7.086210e+002, 3.495659e+002
7.091031e+002, 3.508144e+002
7.095852e+002, 3.509436e+002
7.100673e+002, 3.487670e+002
7.105494e+002, 3.453723e+002
7.110316e+002, 3.434959e+002
7.115137e+002, 3.450170e+002
7.119958e+002, 3.468472e+002
7.124779e+002, 3.464887e+002
7.129600e+002, 3.451033e+002
7.134421e+002, 3.448647e+002
7.139243e+002, 3.480768e+002
7.144064e+002, 3.504260e+002
7.148885e+002, 3.505761e+002
7.153706e+002, 3.492730e+002
7.158527e+002, 3.489734e+002
7.163348e+002, 3.501663e+002
7.168170e+002, 3.505623e+002
7.172991e+002, 3.487354e+002
7.177812e+002, 3.458430e+002
7.182633e+002, 3.463330e+002
7.187454e+002, 3.498595e+002
7.192275e+002, 3.527482e+002
7.197097e+002, 3.521863e+002
7.201918e+002, 3.503380e+002
7.206739e+002, 3.494440e+002
7.211560e+002, 3.495017e+002
7.216381e+002, 3.498166e+002
7.221202e+002, 3.502862e+002
7.226024e+002, 3.507539e+002
7.230845e+002, 3.511095e+002
7.235666e+002, 3.513258e+002
7.240487e+002, 3.517535e+002
7.245308e+002, 3.529737e+002
7.250129e+002, 3.535218e+002
7.254951e+002, 3.519856e+002
7.259772e+002, 3.482213e+002
7.264593e+002, 3.465181e+002
7.269414e+002, 3.470748e+002
7.274235e+002, 3.483578e+002
7.279056e+002, 3.493523e+002
7.283878e+002, 3.499591e+002
7.288699e+002, 3.497473e+002
7.293520e+002, 3.484849e+002
7.298341e+002, 3.476136e+002
7.303162e+002, 3.486471e+002
7.307983e+002, 3.502194e+002
7.312805e+002, 3.509990e+002
7.317626e+002, 3.501367e+002
7.322447e+002, 3.495449e+002
7.327268e+002, 3.492110e+002
7.332089e+002, 3.492993e+002
7.336910e+002, 3.501063e+002
7.341732e+002, 3.518113e+002
7.346553e+002, 3.533488e+002
7.351374e+002, 3.546144e+002
7.356195e+002, 3.555627e+002
7.361016e+002, 3.559941e+002
7.365837e+002, 3.560187e+002
7.370659e+002, 3.560473e+002
7.375480e+002, 3.562832e+002
7.380301e+002, 3.563975e+002
7.385122e+002, 3.560180e+002
7.389943e+002, 3.553358e+002
7.394764e+002, 3.546817e+002
7.399586e+002, 3.533848e+002
7.404407e+002, 3.530262e+002
7.409228e+002, 3.553554e+002
7.414049e+002, 3.586780e+002
7.418870e+002, 3.589385e+002
7.423691e+002, 3.549953e+002
7.428513e+002, 3.513881e+002
7.433334e+002, 3.491110e+002
7.438155e+002, 3.481034e+002
7.442976e+002, 3.485963e+002
7.447797e+002, 3.504427e+002
7.452618e+002, 3.523060e+002
7.457440e+002, 3.539069e+002
7.462261e+002, 3.549280e+002
7.467082e+002, 3.548098e+002
7.471903e+002, 3.537719e+002
7.476724e+002, 3.526332e+002
7.481545e+002, 3.507921e+002
7.486367e+002, 3.498185e+002
7.491188e+002, 3.508179e+002
7.496009e+002, 3.536298e+002
7.500830e+002, 3.557641e+002
7.505651e+002, 3.570135e+002
7.510472e+002, 3.581074e+002
7.515294e+002, 3.596566e+002
7.520115e+002, 3.613898e+002
7.524936e+002, 3.606637e+002
7.529757e+002, 3.575000e+002
7.534578e+002, 3.551649e+002
7.539399e+002, 3.576649e+002
7.544221e+002, 3.615121e+002
7.549042e+002, 3.611610e+002
7.553863e+002, 3.566694e+002
7.558684e+002, 3.533348e+002
7.563505e+002, 3.543934e+002
7.568326e+002, 3.569016e+002
7.573148e+002, 3.595242e+002
7.577969e+002, 3.624280e+002
7.582790e+002, 3.633194e+002
7.587611e+002, 3.608886e+002
7.592432e+002, 3.585115e+002
7.597253e+002, 3.587168e+002
7.602075e+002, 3.615121e+002
7.606896e+002, 3.629542e+002
7.611717e+002, 3.629648e+002
7.616538e+002, 3.622147e+002
7.621359e+002, 3.606521e+002
7.626180e+002, 3.589666e+002
7.631002e+002, 3.583338e+002
7.635823e+002, 3.589583e+002
7.640644e+002, 3.600496e+002
7.645465e+002, 3.616740e+002
7.650286e+002, 3.633073e+002
7.655107e+002, 3.644775e+002
7.659929e+002, 3.649046e+002
7.664750e+002, 3.654995e+002
7.669571e+002, 3.664821e+002
7.674392e+002, 3.673534e+002
7.679213e+002, 3.674920e+002
7.684034e+002, 3.668773e+002
7.688856e+002, 3.670019e+002
7.693677e+002, 3.681570e+002
7.698498e+002, 3.690168e+002
7.703319e+002, 3.674711e+002
7.708140e+002, 3.648236e+002
7.712961e+002, 3.634592e+002
7.717783e+002, 3.641343e+002
7.722604e+002, 3.652214e+002
7.727425e+002, 3.663405e+002
7.732246e+002, 3.671968e+002
7.737067e+002, 3.674815e+002
7.741888e+002, 3.667386e+002
7.746710e+002, 3.661221e+002
7.751531e+002, 3.657122e+002
7.756352e+002, 3.653465e+002
7.761173e+002, 3.647014e+002
7.765994e+002, 3.637836e+002
7.770815e+002, 3.633964e+002
7.775637e+002, 3.637149e+002
7.780458e+002, 3.643717e+002
7.785279e+002, 3.644899e+002
7.790100e+002, 3.647235e+002
7.794921e+002, 3.665533e+002
7.799742e+002, 3.718422e+002
7.804564e+002, 3.758090e+002
7.809385e+002, 3.751843e+002
7.814206e+002, 3.724421e+002
7.819027e+002, 3.709301e+002
7.823848e+002, 3.714217e+002
7.828669e+002, 3.721420e+002
7.833491e+002, 3.731431e+002
7.838312e+002, 3.741082e+002
7.843133e+002, 3.742715e+002
7.847954e+002, 3.737018e+002
7.852775e+002, 3.739611e+002
7.857596e+002, 3.757297e+002
7.862418e+002, 3.775665e+002
7.867239e+002, 3.771947e+002
7.872060e+002, 3.757138e+002
7.876881e+002, 3.751229e+002
7.881702e+002, 3.765289e+002
7.886523e+002, 3.783889e+002
7.891345e+002, 3.807894e+002
7.896166e+002, 3.831268e+002
7.900987e+002, 3.844096e+002
7.905808e+002, 3.841685e+002
7.910629e+002, 3.838889e+002
7.915450e+002, 3.838010e+002
7.920272e+002, 3.837312e+002
7.925093e+002, 3.830775e+002
7.929914e+002, 3.819896e+002
7.934735e+002, 3.817714e+002
7.939556e+002, 3.830420e+002
7.944377e+002, 3.848237e+002
7.949199e+002, 3.863550e+002
7.954020e+002, 3.875728e+002
7.958841e+002, 3.883195e+002
7.963662e+002, 3.877828e+002
7.968483e+002, 3.876530e+002
7.973304e+002, 3.889711e+002
7.978126e+002, 3.907629e+002
7.982947e+002, 3.912894e+002
7.987768e+002, 3.901422e+002
7.992589e+002, 3.888082e+002
7.997410e+002, 3.871758e+002
8.002231e+002, 3.861001e+002
8.007053e+002, 3.881494e+002
8.011874e+002, 3.924008e+002
8.016695e+002, 3.949387e+002
8.021516e+002, 3.936475e+002
8.026337e+002, 3.914539e+002
8.031158e+002, 3.904900e+002
8.035980e+002, 3.904625e+002
8.040801e+002, 3.908243e+002
8.045622e+002, 3.915197e+002
8.050443e+002, 3.925444e+002
8.055264e+002, 3.943233e+002
8.060085e+002, 3.962038e+002
8.064907e+002, 3.968988e+002
8.069728e+002, 3.962349e+002
8.074549e+002, 3.952287e+002
8.079370e+002, 3.936878e+002
8.084191e+002, 3.926988e+002
8.089012e+002, 3.950168e+002
8.093834e+002, 3.993664e+002
8.098655e+002, 4.022905e+002
8.103476e+002, 4.019711e+002
8.108297e+002, 4.006750e+002
8.113118e+002, 3.989510e+002
8.117939e+002, 3.973218e+002
8.122761e+002, 3.967156e+002
8.127582e+002, 3.977821e+002
8.132403e+002, 3.991647e+002
8.137224e+002, 4.010972e+002
8.142045e+002, 4.029667e+002
8.146866e+002, 4.033953e+002
8.151688e+002, 4.024168e+002
8.156509e+002, 4.017331e+002
8.161330e+002, 4.016830e+002
8.166151e+002, 4.022909e+002
8.170972e+002, 4.042445e+002
8.175793e+002, 4.067569e+002
8.180615e+002, 4.083822e+002
8.185436e+002, 4.078617e+002
8.190257e+002, 4.073801e+002
8.195078e+002, 4.079460e+002
8.199899e+002, 4.088719e+002
8.204720e+002, 4.090502e+002
8.209542e+002, 4.080364e+002
8.214363e+002, 4.074322e+002
8.219184e+002, 4.074622e+002
8.224005e+002, 4.079160e+002
8.228826e+002, 4.085888e+002
8.233647e+002, 4.094243e+002
8.238469e+002, 4.102526e+002
8.243290e+002, 4.112565e+002
8.248111e+002, 4.116478e+002
8.252932e+002, 4.096745e+002
8.257753e+002, 4.070596e+002
8.262574e+002, 4.062122e+002
8.267396e+002, 4.094330e+002
8.272217e+002, 4.119962e+002
8.277038e+002, 4.135421e+002
8.281859e+002, 4.142389e+002
8.286681e+002, 4.140151e+002
8.291502e+002, 4.126770e+002
8.296323e+002, 4.122265e+002
8.301144e+002, 4.130716e+002
8.305966e+002, 4.142939e+002
8.310787e+002, 4.147389e+002
8.315608e+002, 4.147437e+002
8.320429e+002, 4.149856e+002
8.325250e+002, 4.156477e+002
8.330071e+002, 4.164296e+002
8.334893e+002, 4.174816e+002
8.339714e+002, 4.184086e+002
8.344535e+002, 4.187319e+002
8.349356e+002, 4.177024e+002
8.354177e+002, 4.177135e+002
8.358998e+002, 4.190407e+002
8.363820e+002, 4.209384e+002
8.368641e+002, 4.229573e+002
8.373462e+002, 4.249781e+002
8.378283e+002, 4.262037e+002
8.383104e+002, 4.265332e+002
8.387925e+002, 4.261859e+002
8.392747e+002, 4.242046e+002
8.397568e+002, 4.222522e+002
8.402389e+002, 4.223146e+002
8.407210e+002, 4.252432e+002
8.412031e+002, 4.283236e+002
8.416852e+002, 4.316925e+002
8.421674e+002, 4.343602e+002
8.426495e+002, 4.355018e+002
8.431316e+002, 4.348414e+002
8.436137e+002, 4.344970e+002
8.440958e+002, 4.345491e+002
8.445779e+002, 4.343714e+002
8.450601e+002, 4.321459e+002
8.455422e+002, 4.297297e+002
8.460243e+002, 4.313145e+002
8.465064e+002, 4.372933e+002
8.469885e+002, 4.425601e+002
8.474706e+002, 4.448637e+002
8.479528e+002, 4.452607e+002
8.484349e+002, 4.435565e+002
8.489170e+002, 4.392570e+002
8.493991e+002, 4.382556e+002
8.498812e+002, 4.416716e+002
8.503633e+002, 4.457213e+002
8.508455e+002, 4.482448e+002
8.513276e+002, 4.494919e+002
8.518097e+002, 4.508374e+002
8.522918e+002, 4.522408e+002
8.527739e+002, 4.531219e+002
8.532560e+002, 4.521734e+002
8.537382e+002, 4.512426e+002
8.542203e+002, 4.520409e+002
8.547024e+002, 4.544992e+002
8.551845e+002, 4.568649e+002
8.556666e+002, 4.592071e+002
8.561487e+002, 4.608086e+002
8.566309e+002, 4.610396e+002
8.571130e+002, 4.603071e+002
8.575951e+002, 4.609158e+002
8.580772e+002, 4.628976e+002
8.585593e+002, 4.656004e+002
8.590414e+002, 4.692757e+002
8.595236e+002, 4.731103e+002
8.600057e+002, 4.758500e+002
8.604878e+002, 4.777228e+002
8.609699e+002, 4.794213e+002
8.614520e+002, 4.818237e+002
8.619341e+002, 4.834860e+002
8.624163e+002, 4.831017e+002
8.628984e+002, 4.816801e+002
8.633805e+002, 4.819661e+002
8.638626e+002, 4.845142e+002
8.643447e+002, 4.865270e+002
8.648268e+002, 4.870321e+002
8.653090e+002, 4.870322e+002
8.657911e+002, 4.886118e+002
8.662732e+002, 4.912626e+002
8.667553e+002, 4.934276e+002
8.672374e+002, 4.941086e+002
8.677195e+002, 4.948315e+002
8.682017e+002, 4.969588e+002
8.686838e+002, 4.995380e+002
8.691659e+002, 5.008671e+002
8.696480e+002, 4.996011e+002
8.701301e+002, 4.997402e+002
8.706122e+002, 5.021720e+002
8.710944e+002, 5.052455e+002
8.715765e+002, 5.069101e+002
8.720586e+002, 5.072075e+002
8.725407e+002, 5.058206e+002
8.730228e+002, 5.021628e+002
8.735049e+002, 4.994515e+002
8.739871e+002, 5.019092e+002
8.744692e+002, 5.061431e+002
8.749513e+002, 5.082531e+002
8.754334e+002, 5.065057e+002
8.759155e+002, 5.049920e+002
8.763976e+002, 5.039447e+002
8.768798e+002, 5.033925e+002
8.773619e+002, 5.034267e+002
8.778440e+002, 5.040617e+002
8.783261e+002, 5.049601e+002
8.788082e+002, 5.061592e+002
8.792903e+002, 5.070516e+002
8.797725e+002, 5.070110e+002
8.802546e+002, 5.064283e+002
8.807367e+002, 5.054838e+002
8.812188e+002, 5.041911e+002
8.817009e+002, 5.037839e+002
8.821830e+002, 5.058297e+002
8.826652e+002, 5.077588e+002
8.831473e+002, 5.081922e+002
8.836294e+002, 5.072021e+002
8.841115e+002, 5.068589e+002
8.845936e+002, 5.072012e+002
8.850757e+002, 5.079166e+002
8.855579e+002, 5.091141e+002
8.860400e+002, 5.104261e+002
8.865221e+002, 5.110038e+002
8.870042e+002, 5.110305e+002
8.874863e+002, 5.113061e+002
8.879684e+002, 5.122921e+002
8.884506e+002, 5.135170e+002
8.889327e+002, 5.146969e+002
8.894148e+002, 5.159556e+002
8.898969e+002, 5.179198e+002
8.903790e+002, 5.210444e+002
8.908611e+002, 5.231515e+002
8.913433e+002, 5.234320e+002
8.918254e+002, 5.227816e+002
8.923075e+002, 5.227379e+002
8.927896e+002, 5.231881e+002
8.932717e+002, 5.237704e+002
8.937538e+002, 5.242386e+002
8.942360e+002, 5.250204e+002
8.947181e+002, 5.261832e+002
8.952002e+002, 5.278598e+002
8.956823e+002, 5.303854e+002
8.961644e+002, 5.346398e+002
8.966465e+002, 5.375809e+002
8.971287e+002, 5.386586e+002
8.976108e+002, 5.390956e+002
8.980929e+002, 5.401689e+002
8.985750e+002, 5.418656e+002
8.990571e+002, 5.442891e+002
8.995392e+002, 5.475651e+002
9.000214e+002, 5.507760e+002
9.005035e+002, 5.534647e+002
9.009856e+002, 5.556599e+002
9.014677e+002, 5.571669e+002
9.019498e+002, 5.573606e+002
9.024319e+002, 5.593282e+002
9.029141e+002, 5.643458e+002
9.033962e+002, 5.688857e+002
9.038783e+002, 5.699048e+002
9.043604e+002, 5.681263e+002
9.048425e+002, 5.697987e+002
9.053246e+002, 5.747330e+002
9.058068e+002, 5.793071e+002
9.062889e+002, 5.807069e+002
9.067710e+002, 5.811212e+002
9.072531e+002, 5.823610e+002
9.077352e+002, 5.843395e+002
9.082173e+002, 5.856321e+002
9.086995e+002, 5.853092e+002
9.091816e+002, 5.856058e+002
9.096637e+002, 5.877790e+002
9.101458e+002, 5.906243e+002
9.106279e+002, 5.891888e+002
9.111100e+002, 5.841419e+002
9.115922e+002, 5.818058e+002
9.120743e+002, 5.864974e+002
9.125564e+002, 5.920221e+002
9.130385e+002, 5.919071e+002
9.135206e+002, 5.886392e+002
9.140027e+002, 5.864925e+002
9.144849e+002, 5.869836e+002
9.149670e+002, 5.881744e+002
9.154491e+002, 5.905402e+002
9.159312e+002, 5.928177e+002
9.164133e+002, 5.926556e+002
9.168954e+002, 5.902951e+002
9.173776e+002, 5.907167e+002
9.178597e+002, 5.948592e+002
9.183418e+002, 5.993696e+002
9.188239e+002, 6.012048e+002
9.193060e+002, 6.016287e+002
9.197881e+002, 6.019326e+002
9.202703e+002, 6.022979e+002
9.207524e+002, 6.026062e+002
9.212345e+002, 6.024993e+002
9.217166e+002, 6.027650e+002
9.221987e+002, 6.039779e+002
9.226808e+002, 6.060771e+002
9.231630e+002, 6.078789e+002
9.236451e+002, 6.093973e+002
9.241272e+002, 6.106921e+002
9.246093e+002, 6.116618e+002
9.250914e+002, 6.125551e+002
9.255735e+002, 6.132902e+002
9.260557e+002, 6.140809e+002
9.265378e+002, 6.158497e+002
9.270199e+002, 6.209207e+002
9.275020e+002, 6.243321e+002
9.279841e+002, 6.244888e+002
9.284662e+002, 6.226384e+002
9.289484e+002, 6.217303e+002
9.294305e+002, 6.217462e+002
9.299126e+002, 6.226810e+002
9.303947e+002, 6.246498e+002
9.308768e+002, 6.272247e+002
9.313589e+002, 6.306354e+002
9.318411e+002, 6.340988e+002
9.323232e+002, 6.364165e+002
9.328053e+002, 6.367715e+002
9.332874e+002, 6.367233e+002
9.337695e+002, 6.359637e+002
9.342516e+002, 6.354138e+002
9.347338e+002, 6.359805e+002
9.352159e+002, 6.376537e+002
9.356980e+002, 6.398676e+002
9.361801e+002, 6.426172e+002
9.366622e+002, 6.454748e+002
9.371443e+002, 6.480170e+002
9.376265e+002, 6.505330e+002
9.381086e+002, 6.533649e+002
9.385907e+002, 6.565673e+002
9.390728e+002, 6.593907e+002
9.395549e+002, 6.609100e+002
9.400370e+002, 6.631541e+002
9.405192e+002, 6.670366e+002
9.410013e+002, 6.721913e+002
9.414834e+002, 6.772444e+002
9.419655e+002, 6.821689e+002
9.424476e+002, 6.862278e+002
9.429297e+002, 6.879419e+002
9.434119e+002, 6.898749e+002
9.438940e+002, 6.956854e+002
9.443761e+002, 7.031655e+002
9.448582e+002, 7.077073e+002
9.453403e+002, 7.036969e+002
9.458224e+002, 7.039343e+002
9.463046e+002, 7.106946e+002
9.467867e+002, 7.205605e+002
9.472688e+002, 7.287200e+002
9.477509e+002, 7.355284e+002
9.482330e+002, 7.429742e+002
9.487151e+002, 7.514379e+002
9.491973e+002, 7.599427e+002
9.496794e+002, 7.670539e+002
9.501615e+002, 7.742392e+002
9.506436e+002, 7.829445e+002
9.511257e+002, 7.935844e+002
9.516078e+002, 8.043639e+002
9.520900e+002, 8.152780e+002
9.525721e+002, 8.262614e+002
9.530542e+002, 8.375798e+002
9.535363e+002, 8.489232e+002
9.540184e+002, 8.581886e+002
9.545005e+002, 8.658268e+002
9.549827e+002, 8.750532e+002
9.554648e+002, 8.892452e+002
9.559469e+002, 9.040540e+002
9.564290e+002, 9.163320e+002
9.569111e+002, 9.272050e+002
9.573932e+002, 9.399212e+002
9.578754e+002, 9.547606e+002
9.583575e+002, 9.711040e+002
9.588396e+002, 9.887096e+002
9.593217e+002, 1.007745e+003
9.598038e+002, 1.029103e+003
9.602859e+002, 1.051778e+003
9.607681e+002, 1.072511e+003
9.612502e+002, 1.089952e+003
9.617323e+002, 1.108179e+003
9.622144e+002, 1.129355e+003
9.626965e+002, 1.152333e+003
9.631786e+002, 1.176416e+003
9.636608e+002, 1.201565e+003
9.641429e+002, 1.226187e+003
9.646250e+002, 1.249740e+003
9.651071e+002, 1.274325e+003
9.655892e+002, 1.303419e+003
9.660714e+002, 1.333554e+003
9.665535e+002, 1.357227e+003
9.670356e+002, 1.375896e+003
9.675177e+002, 1.398358e+003
9.679998e+002, 1.433375e+003
9.684819e+002, 1.467588e+003
9.689641e+002, 1.495048e+003
9.694462e+002, 1.518728e+003
9.699283e+002, 1.546507e+003
9.704104e+002, 1.578876e+003
9.708925e+002, 1.609804e+003
9.713746e+002, 1.638170e+003
9.718568e+002, 1.664628e+003
9.723389e+002, 1.690850e+003
9.728210e+002, 1.715864e+003
9.733031e+002, 1.738348e+003
9.737852e+002, 1.757835e+003
9.742673e+002, 1.775177e+003
9.747495e+002, 1.792049e+003
9.752316e+002, 1.805516e+003
9.757137e+002, 1.814125e+003
9.761958e+002, 1.817919e+003
9.766779e+002, 1.813746e+003
9.771600e+002, 1.801587e+003
9.776422e+002, 1.786759e+003
9.781243e+002, 1.772190e+003
9.786064e+002, 1.756836e+003
9.790885e+002, 1.741600e+003
9.795706e+002, 1.725268e+003
9.800527e+002, 1.701664e+003
9.805349e+002, 1.667250e+003
9.810170e+002, 1.630193e+003
9.814991e+002, 1.591169e+003
9.819812e+002, 1.551098e+003
9.824633e+002, 1.511464e+003
9.829454e+002, 1.472329e+003
9.834276e+002, 1.434258e+003
9.839097e+002, 1.397284e+003
9.843918e+002, 1.360086e+003
9.848739e+002, 1.320304e+003
9.853560e+002, 1.280188e+003
9.858381e+002, 1.242025e+003
9.863203e+002, 1.206106e+003
9.868024e+002, 1.170840e+003
9.872845e+002, 1.136076e+003
9.877666e+002, 1.102469e+003
9.882487e+002, 1.070101e+003
9.887308e+002, 1.039429e+003
9.892130e+002, 1.010880e+003
9.896951e+002, 9.845167e+002
9.901772e+002, 9.594051e+002
9.906593e+002, 9.353376e+002
9.911414e+002, 9.122714e+002
9.916235e+002, 8.899518e+002
9.921057e+002, 8.687176e+002
9.925878e+002, 8.490661e+002
9.930699e+002, 8.310106e+002
9.935520e+002, 8.134348e+002
9.940341e+002, 7.957324e+002
9.945162e+002, 7.794054e+002
9.949984e+002, 7.670099e+002
9.954805e+002, 7.567009e+002
9.959626e+002, 7.461348e+002
9.964447e+002, 7.349744e+002
9.969268e+002, 7.227319e+002
9.974089e+002, 7.079545e+002
9.978911e+002, 6.942357e+002
9.983732e+002, 6.840991e+002
9.988553e+002, 6.770290e+002
9.993374e+002, 6.680409e+002
9.998195e+002, 6.574214e+002
1.000302e+003, 6.476865e+002
1.000784e+003, 6.410951e+002
1.001266e+003, 6.350378e+002
1.001748e+003, 6.272119e+002
1.002230e+003, 6.184866e+002
1.002712e+003, 6.114157e+002
1.003194e+003, 6.071342e+002
1.003676e+003, 6.017213e+002
1.004159e+003, 5.941370e+002
1.004641e+003, 5.864985e+002
1.005123e+003, 5.827528e+002
1.005605e+003, 5.808348e+002
1.006087e+003, 5.749332e+002
1.006569e+003, 5.634711e+002
1.007051e+003, 5.542244e+002
1.007533e+003, 5.522056e+002
1.008016e+003, 5.522057e+002
1.008498e+003, 5.516877e+002
1.008980e+003, 5.505519e+002
1.009462e+003, 5.467991e+002
1.009944e+003, 5.402067e+002
1.010426e+003, 5.340825e+002
1.010908e+003, 5.301326e+002
1.011390e+003, 5.274420e+002
1.011872e+003, 5.257030e+002
1.012355e+003, 5.242736e+002
1.012837e+003, 5.218545e+002
1.013319e+003, 5.175355e+002
1.013801e+003, 5.128403e+002
1.014283e+003, 5.075551e+002
1.014765e+003, 5.024350e+002
1.015247e+003, 4.980342e+002
1.015729e+003, 4.944073e+002
1.016211e+003, 4.923585e+002
1.016694e+003, 4.919384e+002
1.017176e+003, 4.917158e+002
1.017658e+003, 4.909756e+002
1.018140e+003, 4.898463e+002
1.018622e+003, 4.883264e+002
1.019104e+003, 4.864474e+002
1.019586e+003, 4.844315e+002
1.020068e+003, 4.822055e+002
1.020551e+003, 4.801415e+002
1.021033e+003, 4.783879e+002
1.021515e+003, 4.767877e+002
1.021997e+003, 4.746606e+002
1.022479e+003, 4.726088e+002
1.022961e+003, 4.719877e+002
1.023443e+003, 4.743098e+002
1.023925e+003, 4.755998e+002
1.024407e+003, 4.745020e+002
1.024890e+003, 4.724272e+002
1.025372e+003, 4.699850e+002
1.025854e+003, 4.671969e+002
1.026336e+003, 4.657978e+002
1.026818e+003, 4.657620e+002
1.027300e+003, 4.659490e+002
1.027782e+003, 4.655449e+002
1.028264e+003, 4.650839e+002
1.028746e+003, 4.649752e+002
1.029229e+003, 4.651793e+002
1.029711e+003, 4.655196e+002
1.030193e+003, 4.662341e+002
1.030675e+003, 4.663029e+002
1.031157e+003, 4.651952e+002
1.031639e+003, 4.641972e+002
1.032121e+003, 4.661249e+002
1.032603e+003, 4.694102e+002
1.033086e+003, 4.699677e+002
1.033568e+003, 4.666801e+002
1.034050e+003, 4.641025e+002
1.034532e+003, 4.655261e+002
1.035014e+003, 4.669747e+002
1.035496e+003, 4.662281e+002
1.035978e+003, 4.634862e+002
1.036460e+003, 4.605733e+002
1.036943e+003, 4.575464e+002
1.037425e+003, 4.551920e+002
1.037907e+003, 4.541795e+002
1.038389e+003, 4.536916e+002
1.038871e+003, 4.530512e+002
1.039353e+003, 4.523730e+002
1.039835e+003, 4.518983e+002
1.040317e+003, 4.523711e+002
1.040799e+003, 4.516318e+002
1.041281e+003, 4.492759e+002
1.041764e+003, 4.464973e+002
1.042246e+003, 4.442729e+002
1.042728e+003, 4.425687e+002
1.043210e+003, 4.416242e+002
1.043692e+003, 4.413469e+002
1.044174e+003, 4.406935e+002
1.044656e+003, 4.383914e+002
1.045138e+003, 4.364150e+002
1.045621e+003, 4.357051e+002
1.046103e+003, 4.358927e+002
1.046585e+003, 4.361503e+002
1.047067e+003, 4.364879e+002
1.047549e+003, 4.363475e+002
1.048031e+003, 4.355347e+002
1.048513e+003, 4.344449e+002
1.048995e+003, 4.331197e+002
1.049478e+003, 4.319575e+002
1.049960e+003, 4.315693e+002
1.050442e+003, 4.324763e+002
1.050924e+003, 4.322719e+002
1.051406e+003, 4.302021e+002
1.051888e+003, 4.287834e+002
1.052370e+003, 4.298183e+002
1.052852e+003, 4.322870e+002
1.053334e+003, 4.340711e+002
1.053817e+003, 4.350147e+002
1.054299e+003, 4.346161e+002
1.054781e+003, 4.306109e+002
1.055263e+003, 4.277486e+002
1.055745e+003, 4.283271e+002
1.056227e+003, 4.300620e+002
1.056709e+003, 4.301649e+002
1.057191e+003, 4.285924e+002
1.057673e+003, 4.289632e+002
1.058156e+003, 4.316685e+002
1.058638e+003, 4.337114e+002
1.059120e+003, 4.319041e+002
1.059602e+003, 4.290274e+002
1.060084e+003, 4.273314e+002
1.060566e+003, 4.268541e+002
1.061048e+003, 4.262804e+002
1.061530e+003, 4.253700e+002
1.062013e+003, 4.249878e+002
1.062495e+003, 4.255549e+002
1.062977e+003, 4.263679e+002
1.063459e+003, 4.261155e+002
1.063941e+003, 4.253056e+002
1.064423e+003, 4.249972e+002
1.064905e+003, 4.256409e+002
1.065387e+003, 4.259675e+002
1.065870e+003, 4.244370e+002
1.066352e+003, 4.237465e+002
1.066834e+003, 4.257955e+002
1.067316e+003, 4.300375e+002
1.067798e+003, 4.325320e+002
1.068280e+003, 4.333502e+002
1.068762e+003, 4.331188e+002
1.069244e+003, 4.311784e+002
1.069726e+003, 4.293672e+002
1.070208e+003, 4.293691e+002
1.070691e+003, 4.300994e+002
1.071173e+003, 4.296706e+002
1.071655e+003, 4.273866e+002
1.072137e+003, 4.265161e+002
1.072619e+003, 4.273766e+002
1.073101e+003, 4.287625e+002
1.073583e+003, 4.305237e+002
1.074065e+003, 4.315553e+002
1.074548e+003, 4.293408e+002
1.075030e+003, 4.244434e+002
1.075512e+003, 4.217635e+002
1.075994e+003, 4.244855e+002
1.076476e+003, 4.265286e+002
1.076958e+003, 4.264200e+002
1.077440e+003, 4.253063e+002
1.077922e+003, 4.253424e+002
1.078405e+003, 4.261726e+002
1.078887e+003, 4.267453e+002
1.079369e+003, 4.269110e+002
1.079851e+003, 4.264444e+002
1.080333e+003, 4.241386e+002
1.080815e+003, 4.221817e+002
1.081297e+003, 4.218969e+002
1.081779e+003, 4.231855e+002
1.082261e+003, 4.255466e+002
1.082744e+003, 4.289763e+002
1.083226e+003, 4.313871e+002
1.083708e+003, 4.315059e+002
1.084190e+003, 4.307711e+002
1.084672e+003, 4.300954e+002
1.085154e+003, 4.295910e+002
1.085636e+003, 4.295308e+002
1.086118e+003, 4.307319e+002
1.086601e+003, 4.301243e+002
1.087083e+003, 4.271266e+002
1.087565e+003, 4.244071e+002
1.088047e+003, 4.246208e+002
1.088529e+003, 4.262728e+002
1.089011e+003, 4.266853e+002
1.089493e+003, 4.261072e+002
1.089975e+003, 4.258202e+002
1.090458e+003, 4.271738e+002
1.090940e+003, 4.275794e+002
1.091422e+003, 4.261371e+002
1.091904e+003, 4.241417e+002
1.092386e+003, 4.233734e+002
1.092868e+003, 4.237245e+002
1.093350e+003, 4.251755e+002
1.093832e+003, 4.277688e+002
1.094314e+003, 4.295543e+002
1.094797e+003, 4.288571e+002
1.095279e+003, 4.274113e+002
1.095761e+003, 4.259313e+002
1.096243e+003, 4.245742e+002
1.096725e+003, 4.237258e+002
1.097207e+003, 4.233759e+002
1.097689e+003, 4.241041e+002
1.098171e+003, 4.264893e+002
1.098653e+003, 4.288521e+002
1.099136e+003, 4.295398e+002
1.099618e+003, 4.292776e+002
1.100100e+003, 4.287914e+002
1.100582e+003, 4.280747e+002
1.101064e+003, 4.277861e+002
1.101546e+003, 4.282098e+002
1.102028e+003, 4.279304e+002
1.102510e+003, 4.252056e+002
1.102993e+003, 4.221307e+002
1.103475e+003, 4.231114e+002
1.103957e+003, 4.266049e+002
1.104439e+003, 4.291318e+002
1.104921e+003, 4.283518e+002
1.105403e+003, 4.282672e+002
1.105885e+003, 4.296712e+002
1.106367e+003, 4.311562e+002
1.106849e+003, 4.313023e+002
1.107332e+003, 4.304008e+002
1.107814e+003, 4.293754e+002
1.108296e+003, 4.283298e+002
1.108778e+003, 4.277811e+002
1.109260e+003, 4.288680e+002
1.109742e+003, 4.294989e+002
1.110224e+003, 4.282596e+002
1.110706e+003, 4.263895e+002
1.111188e+003, 4.261497e+002
1.111671e+003, 4.274716e+002
1.112153e+003, 4.280919e+002
1.112635e+003, 4.276552e+002
1.113117e+003, 4.271740e+002
1.113599e+003, 4.271886e+002
1.114081e+003, 4.277358e+002
1.114563e+003, 4.294893e+002
1.115045e+003, 4.320719e+002
1.115528e+003, 4.322410e+002
1.116010e+003, 4.294686e+002
1.116492e+003, 4.274887e+002
1.116974e+003, 4.274850e+002
1.117456e+003, 4.284241e+002
1.117938e+003, 4.297067e+002
1.118420e+003, 4.307845e+002
1.118902e+003, 4.305715e+002
1.119385e+003, 4.280680e+002
1.119867e+003, 4.282448e+002
1.120349e+003, 4.325425e+002
1.120831e+003, 4.360020e+002
1.121313e+003, 4.356002e+002
1.121795e+003, 4.330751e+002
1.122277e+003, 4.321772e+002
1.122759e+003, 4.321888e+002
1.123241e+003, 4.313476e+002
1.123724e+003, 4.277079e+002
1.124206e+003, 4.255361e+002
1.124688e+003, 4.260666e+002
1.125170e+003, 4.272609e+002
1.125652e+003, 4.275704e+002
1.126134e+003, 4.271368e+002
1.126616e+003, 4.262994e+002
1.127098e+003, 4.252209e+002
1.127580e+003, 4.247914e+002
1.128063e+003, 4.256261e+002
1.128545e+003, 4.270883e+002
1.129027e+003, 4.300586e+002
1.129509e+003, 4.327149e+002
1.129991e+003, 4.319665e+002
1.130473e+003, 4.279357e+002
1.130955e+003, 4.255548e+002
1.131437e+003, 4.252536e+002
1.131920e+003, 4.259666e+002
1.132402e+003, 4.278853e+002
1.132884e+003, 4.296015e+002
1.133366e+003, 4.296539e+002
1.133848e+003, 4.286767e+002
1.134330e+003, 4.291772e+002
1.134812e+003, 4.314012e+002
1.135294e+003, 4.330249e+002
1.135776e+003, 4.334954e+002
1.136259e+003, 4.336240e+002
1.136741e+003, 4.348071e+002
1.137223e+003, 4.357147e+002
1.137705e+003, 4.343466e+002
1.138187e+003, 4.303672e+002
1.138669e+003, 4.290894e+002
1.139151e+003, 4.314672e+002
1.139633e+003, 4.332242e+002
1.140115e+003, 4.325768e+002
1.140598e+003, 4.312304e+002
1.141080e+003, 4.319842e+002
1.141562e+003, 4.336579e+002
1.142044e+003, 4.342989e+002
1.142526e+003, 4.330164e+002
1.143008e+003, 4.324448e+002
1.143490e+003, 4.332146e+002
1.143972e+003, 4.337093e+002
1.144455e+003, 4.327052e+002
1.144937e+003, 4.310966e+002
1.145419e+003, 4.308010e+002
1.145901e+003, 4.316674e+002
1.146383e+003, 4.333765e+002
1.146865e+003, 4.374810e+002
1.147347e+003, 4.395215e+002
1.147829e+003, 4.382529e+002
1.148312e+003, 4.358739e+002
1.148794e+003, 4.336767e+002
1.149276e+003, 4.318166e+002
1.149758e+003, 4.313766e+002
1.150240e+003, 4.321627e+002
1.150722e+003, 4.331115e+002
1.151204e+003, 4.339796e+002
1.151686e+003, 4.345523e+002
1.152168e+003, 4.347188e+002
1.152651e+003, 4.346014e+002
1.153133e+003, 4.344586e+002
1.153615e+003, 4.342229e+002
1.154097e+003, 4.325959e+002
1.154579e+003, 4.296190e+002
1.155061e+003, 4.278005e+002
1.155543e+003, 4.298565e+002
1.156025e+003, 4.323874e+002
1.156507e+003, 4.334327e+002
1.156990e+003, 4.336822e+002
1.157472e+003, 4.343694e+002
1.157954e+003, 4.354984e+002
1.158436e+003, 4.372359e+002
1.158918e+003, 4.397458e+002
1.159400e+003, 4.411684e+002
1.159882e+003, 4.387221e+002
1.160364e+003, 4.356996e+002
1.160847e+003, 4.347019e+002
1.161329e+003, 4.354287e+002
1.161811e+003, 4.361564e+002
1.162293e+003, 4.369651e+002
1.162775e+003, 4.365424e+002
1.163257e+003, 4.341595e+002
1.163739e+003, 4.321030e+002
1.164221e+003, 4.335886e+002
1.164703e+003, 4.359348e+002
1.165186e+003, 4.361550e+002
1.165668e+003, 4.338927e+002
1.166150e+003, 4.329564e+002
1.166632e+003, 4.336834e+002
1.167114e+003, 4.336090e+002
1.167596e+003, 4.310308e+002
1.168078e+003, 4.289539e+002
1.168560e+003, 4.326209e+002
1.169042e+003, 4.385444e+002
1.169525e+003, 4.418485e+002
1.170007e+003, 4.408991e+002
1.170489e+003, 4.406091e+002
1.170971e+003, 4.412588e+002
1.171453e+003, 4.414892e+002
1.171935e+003, 4.402989e+002
1.172417e+003, 4.386098e+002
1.172899e+003, 4.374532e+002
1.173382e+003, 4.369603e+002
1.173864e+003, 4.374929e+002
1.174346e+003, 4.404606e+002
1.174828e+003, 4.414242e+002
1.175310e+003, 4.394174e+002
1.175792e+003, 4.379070e+002
1.176274e+003, 4.404039e+002
1.176756e+003, 4.444854e+002
1.177239e+003, 4.455220e+002
1.177721e+003, 4.442733e+002
1.178203e+003, 4.427523e+002
1.178685e+003, 4.405072e+002
1.179167e+003, 4.399469e+002
1.179649e+003, 4.418197e+002
1.180131e+003, 4.440598e+002
1.180613e+003, 4.451815e+002
1.181095e+003, 4.451359e+002
1.181578e+003, 4.431162e+002
1.182060e+003, 4.396527e+002
1.182542e+003, 4.370561e+002
1.183024e+003, 4.360478e+002
1.183506e+003, 4.363839e+002
1.183988e+003, 4.384197e+002
1.184470e+003, 4.409841e+002
1.184952e+003, 4.431473e+002
1.185434e+003, 4.446496e+002
1.185917e+003, 4.443054e+002
1.186399e+003, 4.423170e+002
1.186881e+003, 4.410547e+002
1.187363e+003, 4.421068e+002
1.187845e+003, 4.432025e+002
1.188327e+003, 4.438117e+002
1.188809e+003, 4.442332e+002
1.189291e+003, 4.452135e+002
1.189774e+003, 4.463555e+002
1.190256e+003, 4.460938e+002
1.190738e+003, 4.442872e+002
1.191220e+003, 4.432623e+002
1.191702e+003, 4.458199e+002
1.192184e+003, 4.468795e+002
1.192666e+003, 4.440554e+002
1.193148e+003, 4.398350e+002
1.193630e+003, 4.395251e+002
1.194113e+003, 4.420806e+002
1.194595e+003, 4.441521e+002
1.195077e+003, 4.451692e+002
1.195559e+003, 4.454638e+002
1.196041e+003, 4.440746e+002
1.196523e+003, 4.433600e+002
1.197005e+003, 4.445436e+002
1.197487e+003, 4.467293e+002
1.197969e+003, 4.473611e+002
1.198452e+003, 4.468609e+002
1.198934e+003, 4.470042e+002
1.199416e+003, 4.484711e+002
1.199898e+003, 4.491180e+002
1.200380e+003, 4.467587e+002
1.200862e+003, 4.446288e+002
1.201344e+003, 4.443220e+002
1.201826e+003, 4.453762e+002
1.202309e+003, 4.463065e+002
1.202791e+003, 4.471476e+002
1.203273e+003, 4.480273e+002
1.203755e+003, 4.490613e+002
1.204237e+003, 4.499354e+002
1.204719e+003, 4.505105e+002
1.205201e+003, 4.509023e+002
1.205683e+003, 4.514739e+002
1.206166e+003, 4.518643e+002
1.206648e+003, 4.495410e+002
1.207130e+003, 4.453377e+002
1.207612e+003, 4.427689e+002
1.208094e+003, 4.436867e+002
1.208576e+003, 4.452317e+002
1.209058e+003, 4.466684e+002
1.209540e+003, 4.478882e+002
1.210022e+003, 4.487879e+002
1.210505e+003, 4.494000e+002
1.210987e+003, 4.496774e+002
1.211469e+003, 4.497711e+002
1.211951e+003, 4.504354e+002
1.212433e+003, 4.528661e+002
1.212915e+003, 4.545209e+002
1.213397e+003, 4.540990e+002
1.213879e+003, 4.528203e+002
1.214361e+003, 4.511707e+002
1.214844e+003, 4.493246e+002
1.215326e+003, 4.486681e+002
1.215808e+003, 4.490467e+002
1.216290e+003, 4.496581e+002
1.216772e+003, 4.501505e+002
1.217254e+003, 4.507814e+002
1.217736e+003, 4.520857e+002
1.218218e+003, 4.530628e+002
1.218701e+003, 4.525679e+002
1.219183e+003, 4.508906e+002
1.219665e+003, 4.497470e+002
1.220147e+003, 4.492265e+002
1.220629e+003, 4.496064e+002
1.221111e+003, 4.524379e+002
1.221593e+003, 4.542810e+002
1.222075e+003, 4.535846e+002
1.222557e+003, 4.522941e+002
1.223040e+003, 4.528611e+002
1.223522e+003, 4.545926e+002
1.224004e+003, 4.533793e+002
1.224486e+003, 4.497018e+002
1.224968e+003, 4.470746e+002
1.225450e+003, 4.476252e+002
1.225932e+003, 4.490164e+002
1.226414e+003, 4.511588e+002
1.226896e+003, 4.531182e+002
1.227379e+003, 4.535189e+002
1.227861e+003, 4.528416e+002
1.228343e+003, 4.528094e+002
1.228825e+003, 4.534444e+002
1.229307e+003, 4.542708e+002
1.229789e+003, 4.556379e+002
1.230271e+003, 4.562983e+002
1.230753e+003, 4.556039e+002
1.231236e+003, 4.547377e+002
1.231718e+003, 4.555047e+002
1.232200e+003, 4.572585e+002
1.232682e+003, 4.583162e+002
1.233164e+003, 4.585813e+002
1.233646e+003, 4.582921e+002
1.234128e+003, 4.572866e+002
1.234610e+003, 4.559640e+002
1.235093e+003, 4.540734e+002
1.235575e+003, 4.525273e+002
1.236057e+003, 4.530046e+002
1.236539e+003, 4.546328e+002
1.237021e+003, 4.555579e+002
1.237503e+003, 4.556430e+002
1.237985e+003, 4.553178e+002
1.238467e+003, 4.537741e+002
1.238949e+003, 4.533618e+002
1.239432e+003, 4.547123e+002
1.239914e+003, 4.568085e+002
1.240396e+003, 4.584136e+002
1.240878e+003, 4.596823e+002
1.241360e+003, 4.610460e+002
1.241842e+003, 4.624816e+002
1.242324e+003, 4.629267e+002
1.242806e+003, 4.616632e+002
1.243288e+003, 4.605034e+002
1.243771e+003, 4.597230e+002
1.244253e+003, 4.593016e+002
1.244735e+003, 4.597398e+002
1.245217e+003, 4.602227e+002
1.245699e+003, 4.589688e+002
1.246181e+003, 4.560207e+002
1.246663e+003, 4.550414e+002
1.247145e+003, 4.569304e+002
1.247628e+003, 4.589963e+002
1.248110e+003, 4.608226e+002
1.248592e+003, 4.621446e+002
1.249074e+003, 4.624655e+002
1.249556e+003, 4.621697e+002
1.250038e+003, 4.614433e+002
1.250520e+003, 4.604064e+002
1.251002e+003, 4.602364e+002
1.251484e+003, 4.611008e+002
1.251967e+003, 4.623598e+002
1.252449e+003, 4.640952e+002
1.252931e+003, 4.652464e+002
1.253413e+003, 4.639442e+002
1.253895e+003, 4.620070e+002
1.254377e+003, 4.612459e+002
1.254859e+003, 4.617519e+002
1.255341e+003, 4.625258e+002
1.255823e+003, 4.635948e+002
1.256306e+003, 4.646247e+002
1.256788e+003, 4.654768e+002
1.257270e+003, 4.665289e+002
1.257752e+003, 4.688050e+002
1.258234e+003, 4.708822e+002
1.258716e+003, 4.712938e+002
1.259198e+003, 4.703468e+002
1.259680e+003, 4.693832e+002
1.260163e+003, 4.683959e+002
1.260645e+003, 4.677811e+002
1.261127e+003, 4.676445e+002
1.261609e+003, 4.677308e+002
1.262091e+003, 4.681228e+002
1.262573e+003, 4.683933e+002
1.263055e+003, 4.679998e+002
1.263537e+003, 4.673210e+002
1.264020e+003, 4.679532e+002
1.264502e+003, 4.696921e+002
1.264984e+003, 4.709735e+002
1.265466e+003, 4.714171e+002
1.265948e+003, 4.715220e+002
1.266430e+003, 4.712171e+002
1.266912e+003, 4.710622e+002
1.267394e+003, 4.714565e+002
1.267876e+003, 4.720896e+002
1.268359e+003, 4.724326e+002
1.268841e+003, 4.722910e+002
1.269323e+003, 4.703957e+002
1.269805e+003, 4.660919e+002
1.270287e+003, 4.635001e+002
1.270769e+003, 4.661353e+002
1.271251e+003, 4.686279e+002
1.271733e+003, 4.690486e+002
1.272215e+003, 4.684701e+002
1.272698e+003, 4.697227e+002
1.273180e+003, 4.716849e+002
1.273662e+003, 4.714191e+002
1.274144e+003, 4.680667e+002
1.274626e+003, 4.657971e+002
1.275108e+003, 4.653786e+002
1.275590e+003, 4.661384e+002
1.276072e+003, 4.682516e+002
1.276555e+003, 4.706664e+002
1.277037e+003, 4.718651e+002
1.277519e+003, 4.720474e+002
1.278001e+003, 4.710636e+002
1.278483e+003, 4.687510e+002
1.278965e+003, 4.682780e+002
1.279447e+003, 4.702705e+002
1.279929e+003, 4.722586e+002
1.280411e+003, 4.735780e+002
1.280894e+003, 4.742601e+002
1.281376e+003, 4.738464e+002
1.281858e+003, 4.731494e+002
1.282340e+003, 4.729394e+002
1.282822e+003, 4.733314e+002
1.283304e+003, 4.750252e+002
1.283786e+003, 4.782825e+002
1.284268e+003, 4.798572e+002
1.284750e+003, 4.785882e+002
1.285233e+003, 4.766901e+002
1.285715e+003, 4.762021e+002
1.286197e+003, 4.759999e+002
1.286679e+003, 4.751134e+002
1.287161e+003, 4.737039e+002
1.287643e+003, 4.719741e+002
1.288125e+003, 4.701064e+002
1.288607e+003, 4.711811e+002
1.289090e+003, 4.766244e+002
1.289572e+003, 4.803503e+002
1.290054e+003, 4.759405e+002
1.290536e+003, 4.716657e+002
1.291018e+003, 4.723357e+002
1.291500e+003, 4.759189e+002
1.291982e+003, 4.767235e+002
1.292464e+003, 4.754837e+002
1.292947e+003, 4.747656e+002
1.293429e+003, 4.750421e+002
1.293911e+003, 4.760797e+002
1.294393e+003, 4.796148e+002
1.294875e+003, 4.813235e+002
1.295357e+003, 4.793409e+002
1.295839e+003, 4.756056e+002
1.296321e+003, 4.724003e+002
1.296803e+003, 4.707087e+002
1.297286e+003, 4.737628e+002
1.297768e+003, 4.823177e+002
1.298250e+003, 4.863148e+002
1.298732e+003, 4.831561e+002
1.299214e+003, 4.795572e+002
1.299696e+003, 4.769543e+002
1.300178e+003, 4.755484e+002
1.300660e+003, 4.756599e+002
##END=



