##NAMES=Piemontite
##RRUFFID=R150096
##IDEAL CHEMISTRY=Ca_2_(Al_2_Mn^3+^)(Si_2_O_7_)(SiO_4_)O(OH)
##LOCALITY=Ash Canyon, Huachuca Mountains, Cochise County, Arizona, USA
##OWNER=RRUFF
##SOURCE=Marcus Origlieri
##DESCRIPTION=Red prismatic crystals, associated with yellow tabular or massive axinite-(Mn), on white quartz matrix
##STATUS=The identification of this mineral has been confirmed only by single crystal X-ray diffraction.
##URL=rruff.info/R150096
8.813672e+001, 3.095114e+002
8.861884e+001, 3.129980e+002
8.910095e+001, 3.167256e+002
8.958307e+001, 3.214950e+002
9.006519e+001, 3.276520e+002
9.054730e+001, 3.355287e+002
9.102942e+001, 3.469329e+002
9.151154e+001, 3.567689e+002
9.199365e+001, 3.579678e+002
9.247577e+001, 3.518986e+002
9.295789e+001, 3.453195e+002
9.344000e+001, 3.432610e+002
9.392212e+001, 3.441427e+002
9.440424e+001, 3.440787e+002
9.488635e+001, 3.425944e+002
9.536847e+001, 3.404222e+002
9.585059e+001, 3.388423e+002
9.633270e+001, 3.377945e+002
9.681482e+001, 3.373539e+002
9.729694e+001, 3.371297e+002
9.777905e+001, 3.371281e+002
9.826117e+001, 3.393260e+002
9.874329e+001, 3.453824e+002
9.922540e+001, 3.543976e+002
9.970752e+001, 3.596425e+002
1.001896e+002, 3.603156e+002
1.006718e+002, 3.589142e+002
1.011539e+002, 3.583695e+002
1.016360e+002, 3.587712e+002
1.021181e+002, 3.596635e+002
1.026002e+002, 3.608748e+002
1.030823e+002, 3.623598e+002
1.035645e+002, 3.643403e+002
1.040466e+002, 3.665067e+002
1.045287e+002, 3.693641e+002
1.050108e+002, 3.740801e+002
1.054929e+002, 3.816419e+002
1.059750e+002, 3.896046e+002
1.064572e+002, 3.974037e+002
1.069393e+002, 4.077030e+002
1.074214e+002, 4.130753e+002
1.079035e+002, 4.112088e+002
1.083856e+002, 4.041847e+002
1.088677e+002, 3.993316e+002
1.093499e+002, 3.978248e+002
1.098320e+002, 3.975620e+002
1.103141e+002, 3.976460e+002
1.107962e+002, 3.975710e+002
1.112783e+002, 3.983974e+002
1.117604e+002, 4.002541e+002
1.122426e+002, 4.031151e+002
1.127247e+002, 4.067101e+002
1.132068e+002, 4.111279e+002
1.136889e+002, 4.162012e+002
1.141710e+002, 4.217733e+002
1.146531e+002, 4.294245e+002
1.151353e+002, 4.360237e+002
1.156174e+002, 4.401948e+002
1.160995e+002, 4.419094e+002
1.165816e+002, 4.439597e+002
1.170637e+002, 4.485787e+002
1.175458e+002, 4.536731e+002
1.180280e+002, 4.570213e+002
1.185101e+002, 4.556122e+002
1.189922e+002, 4.536768e+002
1.194743e+002, 4.536819e+002
1.199564e+002, 4.558879e+002
1.204385e+002, 4.590505e+002
1.209207e+002, 4.617466e+002
1.214028e+002, 4.649056e+002
1.218849e+002, 4.701402e+002
1.223670e+002, 4.820122e+002
1.228491e+002, 4.947499e+002
1.233312e+002, 5.017025e+002
1.238134e+002, 5.012330e+002
1.242955e+002, 4.984634e+002
1.247776e+002, 4.972801e+002
1.252597e+002, 4.975650e+002
1.257418e+002, 4.988886e+002
1.262239e+002, 5.006900e+002
1.267061e+002, 5.034474e+002
1.271882e+002, 5.083327e+002
1.276703e+002, 5.163030e+002
1.281524e+002, 5.250682e+002
1.286345e+002, 5.310211e+002
1.291166e+002, 5.343923e+002
1.295988e+002, 5.377150e+002
1.300809e+002, 5.434217e+002
1.305630e+002, 5.508323e+002
1.310451e+002, 5.570215e+002
1.315272e+002, 5.610403e+002
1.320093e+002, 5.636689e+002
1.324915e+002, 5.666015e+002
1.329736e+002, 5.698253e+002
1.334557e+002, 5.734160e+002
1.339378e+002, 5.776198e+002
1.344199e+002, 5.824233e+002
1.349020e+002, 5.868871e+002
1.353842e+002, 5.908576e+002
1.358663e+002, 5.942337e+002
1.363484e+002, 5.966522e+002
1.368305e+002, 5.977072e+002
1.373126e+002, 5.988763e+002
1.377947e+002, 6.024767e+002
1.382769e+002, 6.093913e+002
1.387590e+002, 6.142037e+002
1.392411e+002, 6.152825e+002
1.397232e+002, 6.125660e+002
1.402053e+002, 6.081545e+002
1.406874e+002, 6.013563e+002
1.411696e+002, 5.936981e+002
1.416517e+002, 5.872717e+002
1.421338e+002, 5.822947e+002
1.426159e+002, 5.780379e+002
1.430980e+002, 5.742806e+002
1.435801e+002, 5.710566e+002
1.440623e+002, 5.684244e+002
1.445444e+002, 5.664121e+002
1.450265e+002, 5.650165e+002
1.455086e+002, 5.643839e+002
1.459907e+002, 5.655471e+002
1.464728e+002, 5.661278e+002
1.469550e+002, 5.652123e+002
1.474371e+002, 5.618478e+002
1.479192e+002, 5.591984e+002
1.484013e+002, 5.575925e+002
1.488834e+002, 5.566713e+002
1.493655e+002, 5.556229e+002
1.498477e+002, 5.539713e+002
1.503298e+002, 5.526026e+002
1.508119e+002, 5.518748e+002
1.512940e+002, 5.523871e+002
1.517761e+002, 5.526406e+002
1.522583e+002, 5.521169e+002
1.527404e+002, 5.512354e+002
1.532225e+002, 5.511976e+002
1.537046e+002, 5.533468e+002
1.541867e+002, 5.554671e+002
1.546688e+002, 5.565424e+002
1.551510e+002, 5.560136e+002
1.556331e+002, 5.550062e+002
1.561152e+002, 5.533847e+002
1.565973e+002, 5.513268e+002
1.570794e+002, 5.495627e+002
1.575615e+002, 5.483583e+002
1.580437e+002, 5.474169e+002
1.585258e+002, 5.465491e+002
1.590079e+002, 5.454553e+002
1.594900e+002, 5.447023e+002
1.599721e+002, 5.444064e+002
1.604542e+002, 5.445685e+002
1.609364e+002, 5.451912e+002
1.614185e+002, 5.466546e+002
1.619006e+002, 5.483971e+002
1.623827e+002, 5.499661e+002
1.628648e+002, 5.516915e+002
1.633469e+002, 5.528076e+002
1.638291e+002, 5.527084e+002
1.643112e+002, 5.514969e+002
1.647933e+002, 5.502357e+002
1.652754e+002, 5.492863e+002
1.657575e+002, 5.486077e+002
1.662396e+002, 5.481570e+002
1.667218e+002, 5.476518e+002
1.672039e+002, 5.475671e+002
1.676860e+002, 5.483713e+002
1.681681e+002, 5.500411e+002
1.686502e+002, 5.518747e+002
1.691323e+002, 5.533935e+002
1.696145e+002, 5.547986e+002
1.700966e+002, 5.563544e+002
1.705787e+002, 5.591995e+002
1.710608e+002, 5.616234e+002
1.715429e+002, 5.616452e+002
1.720250e+002, 5.591280e+002
1.725072e+002, 5.565489e+002
1.729893e+002, 5.558873e+002
1.734714e+002, 5.564711e+002
1.739535e+002, 5.570567e+002
1.744356e+002, 5.571642e+002
1.749177e+002, 5.569506e+002
1.753999e+002, 5.565826e+002
1.758820e+002, 5.560574e+002
1.763641e+002, 5.553986e+002
1.768462e+002, 5.542168e+002
1.773283e+002, 5.528439e+002
1.778104e+002, 5.521415e+002
1.782926e+002, 5.533134e+002
1.787747e+002, 5.552012e+002
1.792568e+002, 5.557229e+002
1.797389e+002, 5.546271e+002
1.802210e+002, 5.531166e+002
1.807031e+002, 5.525159e+002
1.811853e+002, 5.526469e+002
1.816674e+002, 5.529053e+002
1.821495e+002, 5.528606e+002
1.826316e+002, 5.527317e+002
1.831137e+002, 5.531246e+002
1.835958e+002, 5.541649e+002
1.840780e+002, 5.553879e+002
1.845601e+002, 5.559995e+002
1.850422e+002, 5.561348e+002
1.855243e+002, 5.567287e+002
1.860064e+002, 5.591166e+002
1.864885e+002, 5.625277e+002
1.869707e+002, 5.638444e+002
1.874528e+002, 5.625519e+002
1.879349e+002, 5.601475e+002
1.884170e+002, 5.588806e+002
1.888991e+002, 5.586907e+002
1.893812e+002, 5.585367e+002
1.898634e+002, 5.580117e+002
1.903455e+002, 5.570887e+002
1.908276e+002, 5.555107e+002
1.913097e+002, 5.530862e+002
1.917918e+002, 5.503177e+002
1.922739e+002, 5.479620e+002
1.927561e+002, 5.459843e+002
1.932382e+002, 5.444442e+002
1.937203e+002, 5.434971e+002
1.942024e+002, 5.430971e+002
1.946845e+002, 5.426136e+002
1.951666e+002, 5.419834e+002
1.956488e+002, 5.412867e+002
1.961309e+002, 5.406807e+002
1.966130e+002, 5.401653e+002
1.970951e+002, 5.396987e+002
1.975772e+002, 5.391722e+002
1.980593e+002, 5.385834e+002
1.985415e+002, 5.383502e+002
1.990236e+002, 5.385297e+002
1.995057e+002, 5.390478e+002
1.999878e+002, 5.398402e+002
2.004699e+002, 5.409858e+002
2.009520e+002, 5.420202e+002
2.014342e+002, 5.425860e+002
2.019163e+002, 5.426355e+002
2.023984e+002, 5.428698e+002
2.028805e+002, 5.434161e+002
2.033626e+002, 5.440983e+002
2.038447e+002, 5.444313e+002
2.043269e+002, 5.443270e+002
2.048090e+002, 5.441863e+002
2.052911e+002, 5.442097e+002
2.057732e+002, 5.443965e+002
2.062553e+002, 5.447626e+002
2.067374e+002, 5.453618e+002
2.072196e+002, 5.461087e+002
2.077017e+002, 5.467573e+002
2.081838e+002, 5.472707e+002
2.086659e+002, 5.477960e+002
2.091480e+002, 5.484987e+002
2.096301e+002, 5.495205e+002
2.101123e+002, 5.500516e+002
2.105944e+002, 5.498582e+002
2.110765e+002, 5.492506e+002
2.115586e+002, 5.491365e+002
2.120407e+002, 5.496492e+002
2.125228e+002, 5.503577e+002
2.130050e+002, 5.509504e+002
2.134871e+002, 5.512531e+002
2.139692e+002, 5.521317e+002
2.144513e+002, 5.539065e+002
2.149334e+002, 5.561757e+002
2.154155e+002, 5.577645e+002
2.158977e+002, 5.584739e+002
2.163798e+002, 5.588772e+002
2.168619e+002, 5.592097e+002
2.173440e+002, 5.593716e+002
2.178261e+002, 5.597443e+002
2.183082e+002, 5.603465e+002
2.187904e+002, 5.611567e+002
2.192725e+002, 5.621643e+002
2.197546e+002, 5.635041e+002
2.202367e+002, 5.647808e+002
2.207188e+002, 5.656189e+002
2.212009e+002, 5.654641e+002
2.216831e+002, 5.665413e+002
2.221652e+002, 5.696236e+002
2.226473e+002, 5.737996e+002
2.231294e+002, 5.761658e+002
2.236115e+002, 5.758524e+002
2.240936e+002, 5.752353e+002
2.245758e+002, 5.755369e+002
2.250579e+002, 5.773771e+002
2.255400e+002, 5.785871e+002
2.260221e+002, 5.788568e+002
2.265042e+002, 5.785567e+002
2.269863e+002, 5.786852e+002
2.274685e+002, 5.793623e+002
2.279506e+002, 5.802859e+002
2.284327e+002, 5.813573e+002
2.289148e+002, 5.827339e+002
2.293969e+002, 5.838914e+002
2.298790e+002, 5.847230e+002
2.303612e+002, 5.853538e+002
2.308433e+002, 5.861163e+002
2.313254e+002, 5.871219e+002
2.318075e+002, 5.880850e+002
2.322896e+002, 5.888851e+002
2.327717e+002, 5.894905e+002
2.332539e+002, 5.900156e+002
2.337360e+002, 5.906304e+002
2.342181e+002, 5.910883e+002
2.347002e+002, 5.906891e+002
2.351823e+002, 5.886415e+002
2.356644e+002, 5.869247e+002
2.361466e+002, 5.864322e+002
2.366287e+002, 5.877834e+002
2.371108e+002, 5.886204e+002
2.375929e+002, 5.885762e+002
2.380750e+002, 5.881584e+002
2.385571e+002, 5.884199e+002
2.390393e+002, 5.895775e+002
2.395214e+002, 5.910841e+002
2.400035e+002, 5.928332e+002
2.404856e+002, 5.950744e+002
2.409677e+002, 5.968039e+002
2.414498e+002, 5.975042e+002
2.419320e+002, 5.979766e+002
2.424141e+002, 5.998353e+002
2.428962e+002, 6.042751e+002
2.433783e+002, 6.081822e+002
2.438604e+002, 6.103718e+002
2.443425e+002, 6.102799e+002
2.448247e+002, 6.105958e+002
2.453068e+002, 6.114698e+002
2.457889e+002, 6.126636e+002
2.462710e+002, 6.139080e+002
2.467531e+002, 6.156122e+002
2.472352e+002, 6.166581e+002
2.477174e+002, 6.166774e+002
2.481995e+002, 6.155715e+002
2.486816e+002, 6.138372e+002
2.491637e+002, 6.110676e+002
2.496458e+002, 6.079520e+002
2.501279e+002, 6.055427e+002
2.506101e+002, 6.041929e+002
2.510922e+002, 6.028375e+002
2.515743e+002, 6.012393e+002
2.520564e+002, 5.993904e+002
2.525385e+002, 5.972599e+002
2.530206e+002, 5.946877e+002
2.535028e+002, 5.919604e+002
2.539849e+002, 5.895300e+002
2.544670e+002, 5.875729e+002
2.549491e+002, 5.854617e+002
2.554312e+002, 5.828967e+002
2.559133e+002, 5.798422e+002
2.563955e+002, 5.774380e+002
2.568776e+002, 5.758645e+002
2.573597e+002, 5.747337e+002
2.578418e+002, 5.736846e+002
2.583239e+002, 5.728031e+002
2.588061e+002, 5.717540e+002
2.592882e+002, 5.703757e+002
2.597703e+002, 5.686700e+002
2.602524e+002, 5.673224e+002
2.607345e+002, 5.665883e+002
2.612166e+002, 5.658386e+002
2.616988e+002, 5.642853e+002
2.621809e+002, 5.613723e+002
2.626630e+002, 5.593972e+002
2.631451e+002, 5.591163e+002
2.636272e+002, 5.602763e+002
2.641093e+002, 5.605194e+002
2.645915e+002, 5.595719e+002
2.650736e+002, 5.582090e+002
2.655557e+002, 5.569544e+002
2.660378e+002, 5.558018e+002
2.665199e+002, 5.548924e+002
2.670020e+002, 5.543279e+002
2.674842e+002, 5.540282e+002
2.679663e+002, 5.535709e+002
2.684484e+002, 5.528516e+002
2.689305e+002, 5.522088e+002
2.694126e+002, 5.518450e+002
2.698947e+002, 5.517384e+002
2.703769e+002, 5.520488e+002
2.708590e+002, 5.530001e+002
2.713411e+002, 5.542772e+002
2.718232e+002, 5.548129e+002
2.723053e+002, 5.544752e+002
2.727874e+002, 5.537929e+002
2.732696e+002, 5.528799e+002
2.737517e+002, 5.516038e+002
2.742338e+002, 5.511374e+002
2.747159e+002, 5.519127e+002
2.751980e+002, 5.531766e+002
2.756801e+002, 5.530201e+002
2.761623e+002, 5.511820e+002
2.766444e+002, 5.491119e+002
2.771265e+002, 5.476243e+002
2.776086e+002, 5.467720e+002
2.780907e+002, 5.455564e+002
2.785728e+002, 5.439138e+002
2.790550e+002, 5.419551e+002
2.795371e+002, 5.397347e+002
2.800192e+002, 5.371895e+002
2.805013e+002, 5.348890e+002
2.809834e+002, 5.330089e+002
2.814655e+002, 5.315505e+002
2.819477e+002, 5.307493e+002
2.824298e+002, 5.307245e+002
2.829119e+002, 5.310438e+002
2.833940e+002, 5.311566e+002
2.838761e+002, 5.310529e+002
2.843582e+002, 5.308502e+002
2.848404e+002, 5.304668e+002
2.853225e+002, 5.299771e+002
2.858046e+002, 5.299876e+002
2.862867e+002, 5.305990e+002
2.867688e+002, 5.312166e+002
2.872509e+002, 5.310083e+002
2.877331e+002, 5.300460e+002
2.882152e+002, 5.293553e+002
2.886973e+002, 5.294571e+002
2.891794e+002, 5.300204e+002
2.896615e+002, 5.298118e+002
2.901436e+002, 5.287707e+002
2.906258e+002, 5.277591e+002
2.911079e+002, 5.276735e+002
2.915900e+002, 5.283687e+002
2.920721e+002, 5.290466e+002
2.925542e+002, 5.295441e+002
2.930363e+002, 5.298834e+002
2.935185e+002, 5.300189e+002
2.940006e+002, 5.299589e+002
2.944827e+002, 5.299540e+002
2.949648e+002, 5.303925e+002
2.954469e+002, 5.310655e+002
2.959290e+002, 5.313048e+002
2.964112e+002, 5.309352e+002
2.968933e+002, 5.301621e+002
2.973754e+002, 5.291705e+002
2.978575e+002, 5.279988e+002
2.983396e+002, 5.268760e+002
2.988217e+002, 5.259122e+002
2.993039e+002, 5.251078e+002
2.997860e+002, 5.245865e+002
3.002681e+002, 5.244717e+002
3.007502e+002, 5.242661e+002
3.012323e+002, 5.231321e+002
3.017144e+002, 5.213329e+002
3.021966e+002, 5.198485e+002
3.026787e+002, 5.195295e+002
3.031608e+002, 5.196829e+002
3.036429e+002, 5.193089e+002
3.041250e+002, 5.182812e+002
3.046071e+002, 5.171140e+002
3.050893e+002, 5.160223e+002
3.055714e+002, 5.151351e+002
3.060535e+002, 5.147589e+002
3.065356e+002, 5.156805e+002
3.070177e+002, 5.167818e+002
3.074998e+002, 5.168899e+002
3.079820e+002, 5.159734e+002
3.084641e+002, 5.148245e+002
3.089462e+002, 5.135806e+002
3.094283e+002, 5.125541e+002
3.099104e+002, 5.121936e+002
3.103925e+002, 5.135129e+002
3.108747e+002, 5.148940e+002
3.113568e+002, 5.151231e+002
3.118389e+002, 5.143284e+002
3.123210e+002, 5.134413e+002
3.128031e+002, 5.126910e+002
3.132852e+002, 5.122158e+002
3.137674e+002, 5.121569e+002
3.142495e+002, 5.127125e+002
3.147316e+002, 5.134818e+002
3.152137e+002, 5.143915e+002
3.156958e+002, 5.153801e+002
3.161779e+002, 5.162449e+002
3.166601e+002, 5.169772e+002
3.171422e+002, 5.175011e+002
3.176243e+002, 5.176693e+002
3.181064e+002, 5.171210e+002
3.185885e+002, 5.169111e+002
3.190706e+002, 5.177098e+002
3.195528e+002, 5.190643e+002
3.200349e+002, 5.201022e+002
3.205170e+002, 5.202759e+002
3.209991e+002, 5.203222e+002
3.214812e+002, 5.205331e+002
3.219633e+002, 5.209492e+002
3.224455e+002, 5.214916e+002
3.229276e+002, 5.223515e+002
3.234097e+002, 5.232686e+002
3.238918e+002, 5.239236e+002
3.243739e+002, 5.239283e+002
3.248560e+002, 5.240076e+002
3.253382e+002, 5.244357e+002
3.258203e+002, 5.252864e+002
3.263024e+002, 5.258932e+002
3.267845e+002, 5.258378e+002
3.272666e+002, 5.257350e+002
3.277487e+002, 5.260845e+002
3.282309e+002, 5.281675e+002
3.287130e+002, 5.291869e+002
3.291951e+002, 5.282158e+002
3.296772e+002, 5.255446e+002
3.301593e+002, 5.241245e+002
3.306414e+002, 5.249691e+002
3.311236e+002, 5.261094e+002
3.316057e+002, 5.264225e+002
3.320878e+002, 5.250016e+002
3.325699e+002, 5.244066e+002
3.330520e+002, 5.251713e+002
3.335341e+002, 5.267216e+002
3.340163e+002, 5.274362e+002
3.344984e+002, 5.269427e+002
3.349805e+002, 5.262153e+002
3.354626e+002, 5.255827e+002
3.359447e+002, 5.249780e+002
3.364268e+002, 5.247999e+002
3.369090e+002, 5.253004e+002
3.373911e+002, 5.259759e+002
3.378732e+002, 5.259292e+002
3.383553e+002, 5.249258e+002
3.388374e+002, 5.240363e+002
3.393195e+002, 5.235687e+002
3.398017e+002, 5.235238e+002
3.402838e+002, 5.238265e+002
3.407659e+002, 5.246378e+002
3.412480e+002, 5.254040e+002
3.417301e+002, 5.253265e+002
3.422122e+002, 5.243118e+002
3.426944e+002, 5.238893e+002
3.431765e+002, 5.245151e+002
3.436586e+002, 5.259166e+002
3.441407e+002, 5.272099e+002
3.446228e+002, 5.283806e+002
3.451049e+002, 5.295280e+002
3.455871e+002, 5.307023e+002
3.460692e+002, 5.319133e+002
3.465513e+002, 5.331996e+002
3.470334e+002, 5.346870e+002
3.475155e+002, 5.360122e+002
3.479977e+002, 5.362360e+002
3.484798e+002, 5.355103e+002
3.489619e+002, 5.350867e+002
3.494440e+002, 5.360336e+002
3.499261e+002, 5.377656e+002
3.504082e+002, 5.389826e+002
3.508904e+002, 5.395906e+002
3.513725e+002, 5.397891e+002
3.518546e+002, 5.396142e+002
3.523367e+002, 5.391790e+002
3.528188e+002, 5.387791e+002
3.533009e+002, 5.388926e+002
3.537831e+002, 5.389259e+002
3.542652e+002, 5.378766e+002
3.547473e+002, 5.358044e+002
3.552294e+002, 5.339926e+002
3.557115e+002, 5.337977e+002
3.561936e+002, 5.342953e+002
3.566758e+002, 5.342722e+002
3.571579e+002, 5.332081e+002
3.576400e+002, 5.317360e+002
3.581221e+002, 5.301074e+002
3.586042e+002, 5.284059e+002
3.590863e+002, 5.268723e+002
3.595685e+002, 5.255030e+002
3.600506e+002, 5.244314e+002
3.605327e+002, 5.237966e+002
3.610148e+002, 5.237299e+002
3.614969e+002, 5.238162e+002
3.619790e+002, 5.242529e+002
3.624612e+002, 5.246793e+002
3.629433e+002, 5.244938e+002
3.634254e+002, 5.225652e+002
3.639075e+002, 5.208144e+002
3.643896e+002, 5.202985e+002
3.648717e+002, 5.213254e+002
3.653539e+002, 5.216476e+002
3.658360e+002, 5.200941e+002
3.663181e+002, 5.179772e+002
3.668002e+002, 5.164655e+002
3.672823e+002, 5.162688e+002
3.677644e+002, 5.160354e+002
3.682466e+002, 5.155030e+002
3.687287e+002, 5.147031e+002
3.692108e+002, 5.140893e+002
3.696929e+002, 5.141539e+002
3.701750e+002, 5.139700e+002
3.706571e+002, 5.130269e+002
3.711393e+002, 5.105771e+002
3.716214e+002, 5.086777e+002
3.721035e+002, 5.075143e+002
3.725856e+002, 5.068443e+002
3.730677e+002, 5.061356e+002
3.735498e+002, 5.053353e+002
3.740320e+002, 5.045922e+002
3.745141e+002, 5.039545e+002
3.749962e+002, 5.034225e+002
3.754783e+002, 5.030151e+002
3.759604e+002, 5.027270e+002
3.764425e+002, 5.025798e+002
3.769247e+002, 5.027008e+002
3.774068e+002, 5.031746e+002
3.778889e+002, 5.033394e+002
3.783710e+002, 5.028451e+002
3.788531e+002, 5.019488e+002
3.793352e+002, 5.018330e+002
3.798174e+002, 5.025871e+002
3.802995e+002, 5.035112e+002
3.807816e+002, 5.040221e+002
3.812637e+002, 5.041806e+002
3.817458e+002, 5.044999e+002
3.822279e+002, 5.051454e+002
3.827101e+002, 5.057914e+002
3.831922e+002, 5.056585e+002
3.836743e+002, 5.048978e+002
3.841564e+002, 5.045594e+002
3.846385e+002, 5.054982e+002
3.851206e+002, 5.071985e+002
3.856028e+002, 5.086212e+002
3.860849e+002, 5.097034e+002
3.865670e+002, 5.107240e+002
3.870491e+002, 5.121574e+002
3.875312e+002, 5.137114e+002
3.880133e+002, 5.148090e+002
3.884955e+002, 5.149442e+002
3.889776e+002, 5.147785e+002
3.894597e+002, 5.147939e+002
3.899418e+002, 5.149982e+002
3.904239e+002, 5.154466e+002
3.909060e+002, 5.165858e+002
3.913882e+002, 5.177712e+002
3.918703e+002, 5.183977e+002
3.923524e+002, 5.182304e+002
3.928345e+002, 5.177398e+002
3.933166e+002, 5.171262e+002
3.937987e+002, 5.163475e+002
3.942809e+002, 5.153336e+002
3.947630e+002, 5.138616e+002
3.952451e+002, 5.123167e+002
3.957272e+002, 5.108246e+002
3.962093e+002, 5.093990e+002
3.966914e+002, 5.080551e+002
3.971736e+002, 5.070584e+002
3.976557e+002, 5.060147e+002
3.981378e+002, 5.045547e+002
3.986199e+002, 5.018599e+002
3.991020e+002, 4.996475e+002
3.995841e+002, 4.983944e+002
4.000663e+002, 4.979201e+002
4.005484e+002, 4.969886e+002
4.010305e+002, 4.949530e+002
4.015126e+002, 4.931606e+002
4.019947e+002, 4.923690e+002
4.024768e+002, 4.932976e+002
4.029590e+002, 4.935016e+002
4.034411e+002, 4.926188e+002
4.039232e+002, 4.912940e+002
4.044053e+002, 4.907614e+002
4.048874e+002, 4.913566e+002
4.053695e+002, 4.917355e+002
4.058517e+002, 4.913224e+002
4.063338e+002, 4.902085e+002
4.068159e+002, 4.896812e+002
4.072980e+002, 4.898071e+002
4.077801e+002, 4.902997e+002
4.082622e+002, 4.908372e+002
4.087444e+002, 4.914336e+002
4.092265e+002, 4.924972e+002
4.097086e+002, 4.942593e+002
4.101907e+002, 4.963217e+002
4.106728e+002, 4.978579e+002
4.111549e+002, 4.989063e+002
4.116371e+002, 4.998795e+002
4.121192e+002, 5.008551e+002
4.126013e+002, 5.019451e+002
4.130834e+002, 5.033947e+002
4.135655e+002, 5.052171e+002
4.140476e+002, 5.073549e+002
4.145298e+002, 5.101302e+002
4.150119e+002, 5.131638e+002
4.154940e+002, 5.157570e+002
4.159761e+002, 5.171575e+002
4.164582e+002, 5.183314e+002
4.169403e+002, 5.199697e+002
4.174225e+002, 5.220678e+002
4.179046e+002, 5.245837e+002
4.183867e+002, 5.275176e+002
4.188688e+002, 5.308099e+002
4.193509e+002, 5.344092e+002
4.198330e+002, 5.385151e+002
4.203152e+002, 5.425555e+002
4.207973e+002, 5.463518e+002
4.212794e+002, 5.499680e+002
4.217615e+002, 5.535472e+002
4.222436e+002, 5.569913e+002
4.227257e+002, 5.605272e+002
4.232079e+002, 5.644484e+002
4.236900e+002, 5.688679e+002
4.241721e+002, 5.726515e+002
4.246542e+002, 5.755937e+002
4.251363e+002, 5.779625e+002
4.256184e+002, 5.799896e+002
4.261006e+002, 5.816548e+002
4.265827e+002, 5.829477e+002
4.270648e+002, 5.839236e+002
4.275469e+002, 5.845156e+002
4.280290e+002, 5.844937e+002
4.285111e+002, 5.838757e+002
4.289933e+002, 5.825775e+002
4.294754e+002, 5.802828e+002
4.299575e+002, 5.767116e+002
4.304396e+002, 5.742192e+002
4.309217e+002, 5.730694e+002
4.314038e+002, 5.723906e+002
4.318860e+002, 5.709117e+002
4.323681e+002, 5.685801e+002
4.328502e+002, 5.669677e+002
4.333323e+002, 5.666705e+002
4.338144e+002, 5.672585e+002
4.342965e+002, 5.677976e+002
4.347787e+002, 5.682896e+002
4.352608e+002, 5.682965e+002
4.357429e+002, 5.669202e+002
4.362250e+002, 5.648632e+002
4.367071e+002, 5.639891e+002
4.371892e+002, 5.646840e+002
4.376714e+002, 5.658855e+002
4.381535e+002, 5.667258e+002
4.386356e+002, 5.672063e+002
4.391177e+002, 5.673120e+002
4.395998e+002, 5.668087e+002
4.400819e+002, 5.660803e+002
4.405641e+002, 5.652375e+002
4.410462e+002, 5.643310e+002
4.415283e+002, 5.638754e+002
4.420104e+002, 5.643012e+002
4.424925e+002, 5.652099e+002
4.429746e+002, 5.662745e+002
4.434568e+002, 5.674453e+002
4.439389e+002, 5.687230e+002
4.444210e+002, 5.701533e+002
4.449031e+002, 5.716819e+002
4.453852e+002, 5.732147e+002
4.458673e+002, 5.749350e+002
4.463495e+002, 5.764481e+002
4.468316e+002, 5.775297e+002
4.473137e+002, 5.780783e+002
4.477958e+002, 5.790030e+002
4.482779e+002, 5.809225e+002
4.487600e+002, 5.827072e+002
4.492422e+002, 5.834854e+002
4.497243e+002, 5.828381e+002
4.502064e+002, 5.821400e+002
4.506885e+002, 5.818397e+002
4.511706e+002, 5.813932e+002
4.516527e+002, 5.790846e+002
4.521349e+002, 5.743990e+002
4.526170e+002, 5.696111e+002
4.530991e+002, 5.657184e+002
4.535812e+002, 5.626477e+002
4.540633e+002, 5.598464e+002
4.545454e+002, 5.573097e+002
4.550276e+002, 5.548812e+002
4.555097e+002, 5.523954e+002
4.559918e+002, 5.498620e+002
4.564739e+002, 5.475032e+002
4.569560e+002, 5.453793e+002
4.574381e+002, 5.433917e+002
4.579203e+002, 5.412897e+002
4.584024e+002, 5.391466e+002
4.588845e+002, 5.372492e+002
4.593666e+002, 5.360982e+002
4.598488e+002, 5.351607e+002
4.603309e+002, 5.336694e+002
4.608130e+002, 5.315105e+002
4.612951e+002, 5.295399e+002
4.617772e+002, 5.285973e+002
4.622593e+002, 5.281297e+002
4.627415e+002, 5.275078e+002
4.632236e+002, 5.264086e+002
4.637057e+002, 5.252405e+002
4.641878e+002, 5.241775e+002
4.646699e+002, 5.231906e+002
4.651520e+002, 5.221432e+002
4.656342e+002, 5.208866e+002
4.661163e+002, 5.196899e+002
4.665984e+002, 5.187094e+002
4.670805e+002, 5.181265e+002
4.675626e+002, 5.172830e+002
4.680447e+002, 5.159046e+002
4.685269e+002, 5.144296e+002
4.690090e+002, 5.133057e+002
4.694911e+002, 5.127701e+002
4.699732e+002, 5.121331e+002
4.704553e+002, 5.112001e+002
4.709374e+002, 5.100884e+002
4.714196e+002, 5.093139e+002
4.719017e+002, 5.089411e+002
4.723838e+002, 5.087016e+002
4.728659e+002, 5.086159e+002
4.733480e+002, 5.086776e+002
4.738301e+002, 5.079734e+002
4.743123e+002, 5.063421e+002
4.747944e+002, 5.044914e+002
4.752765e+002, 5.032642e+002
4.757586e+002, 5.025755e+002
4.762407e+002, 5.019901e+002
4.767228e+002, 5.013602e+002
4.772050e+002, 5.007870e+002
4.776871e+002, 5.005433e+002
4.781692e+002, 5.005538e+002
4.786513e+002, 5.004432e+002
4.791334e+002, 4.996939e+002
4.796155e+002, 4.988584e+002
4.800977e+002, 4.985847e+002
4.805798e+002, 4.990063e+002
4.810619e+002, 4.995687e+002
4.815440e+002, 5.000407e+002
4.820261e+002, 5.004341e+002
4.825082e+002, 5.007653e+002
4.829904e+002, 5.007067e+002
4.834725e+002, 5.009362e+002
4.839546e+002, 5.019734e+002
4.844367e+002, 5.035709e+002
4.849188e+002, 5.046212e+002
4.854009e+002, 5.042603e+002
4.858831e+002, 5.039446e+002
4.863652e+002, 5.043031e+002
4.868473e+002, 5.055991e+002
4.873294e+002, 5.065405e+002
4.878115e+002, 5.068636e+002
4.882936e+002, 5.070598e+002
4.887758e+002, 5.076989e+002
4.892579e+002, 5.089807e+002
4.897400e+002, 5.100266e+002
4.902221e+002, 5.106045e+002
4.907042e+002, 5.109050e+002
4.911863e+002, 5.115416e+002
4.916685e+002, 5.125574e+002
4.921506e+002, 5.135150e+002
4.926327e+002, 5.142327e+002
4.931148e+002, 5.147104e+002
4.935969e+002, 5.146879e+002
4.940790e+002, 5.141003e+002
4.945612e+002, 5.137755e+002
4.950433e+002, 5.149155e+002
4.955254e+002, 5.169090e+002
4.960075e+002, 5.183894e+002
4.964896e+002, 5.186890e+002
4.969717e+002, 5.187950e+002
4.974539e+002, 5.197656e+002
4.979360e+002, 5.212931e+002
4.984181e+002, 5.225376e+002
4.989002e+002, 5.225235e+002
4.993823e+002, 5.225540e+002
4.998644e+002, 5.235189e+002
5.003466e+002, 5.255414e+002
5.008287e+002, 5.276163e+002
5.013108e+002, 5.295338e+002
5.017929e+002, 5.313118e+002
5.022750e+002, 5.329554e+002
5.027571e+002, 5.345493e+002
5.032393e+002, 5.358951e+002
5.037214e+002, 5.367621e+002
5.042035e+002, 5.374159e+002
5.046856e+002, 5.385134e+002
5.051677e+002, 5.405346e+002
5.056498e+002, 5.420928e+002
5.061320e+002, 5.426663e+002
5.066141e+002, 5.423068e+002
5.070962e+002, 5.422139e+002
5.075783e+002, 5.424933e+002
5.080604e+002, 5.427203e+002
5.085425e+002, 5.424009e+002
5.090247e+002, 5.416096e+002
5.095068e+002, 5.413469e+002
5.099889e+002, 5.419020e+002
5.104710e+002, 5.425054e+002
5.109531e+002, 5.419756e+002
5.114352e+002, 5.405423e+002
5.119174e+002, 5.390375e+002
5.123995e+002, 5.378532e+002
5.128816e+002, 5.367588e+002
5.133637e+002, 5.357339e+002
5.138458e+002, 5.346633e+002
5.143279e+002, 5.328730e+002
5.148101e+002, 5.290686e+002
5.152922e+002, 5.249210e+002
5.157743e+002, 5.218337e+002
5.162564e+002, 5.202523e+002
5.167385e+002, 5.188741e+002
5.172206e+002, 5.174688e+002
5.177028e+002, 5.159538e+002
5.181849e+002, 5.142429e+002
5.186670e+002, 5.119100e+002
5.191491e+002, 5.098608e+002
5.196312e+002, 5.081514e+002
5.201133e+002, 5.068230e+002
5.205955e+002, 5.060099e+002
5.210776e+002, 5.059229e+002
5.215597e+002, 5.060401e+002
5.220418e+002, 5.062223e+002
5.225239e+002, 5.065068e+002
5.230060e+002, 5.065035e+002
5.234882e+002, 5.061362e+002
5.239703e+002, 5.057236e+002
5.244524e+002, 5.058849e+002
5.249345e+002, 5.065226e+002
5.254166e+002, 5.060989e+002
5.258987e+002, 5.039921e+002
5.263809e+002, 5.013453e+002
5.268630e+002, 5.001233e+002
5.273451e+002, 4.999727e+002
5.278272e+002, 4.994881e+002
5.283093e+002, 4.979738e+002
5.287914e+002, 4.957164e+002
5.292736e+002, 4.926327e+002
5.297557e+002, 4.887946e+002
5.302378e+002, 4.855044e+002
5.307199e+002, 4.836128e+002
5.312020e+002, 4.824684e+002
5.316841e+002, 4.816405e+002
5.321663e+002, 4.812967e+002
5.326484e+002, 4.806717e+002
5.331305e+002, 4.792206e+002
5.336126e+002, 4.774753e+002
5.340947e+002, 4.761722e+002
5.345768e+002, 4.754430e+002
5.350590e+002, 4.751206e+002
5.355411e+002, 4.754398e+002
5.360232e+002, 4.762345e+002
5.365053e+002, 4.763888e+002
5.369874e+002, 4.756163e+002
5.374695e+002, 4.748668e+002
5.379517e+002, 4.747580e+002
5.384338e+002, 4.753482e+002
5.389159e+002, 4.752927e+002
5.393980e+002, 4.744602e+002
5.398801e+002, 4.735043e+002
5.403622e+002, 4.731970e+002
5.408444e+002, 4.734234e+002
5.413265e+002, 4.735977e+002
5.418086e+002, 4.734883e+002
5.422907e+002, 4.734750e+002
5.427728e+002, 4.741535e+002
5.432549e+002, 4.753466e+002
5.437371e+002, 4.765366e+002
5.442192e+002, 4.773279e+002
5.447013e+002, 4.781107e+002
5.451834e+002, 4.794630e+002
5.456655e+002, 4.813254e+002
5.461476e+002, 4.825007e+002
5.466298e+002, 4.812882e+002
5.471119e+002, 4.800473e+002
5.475940e+002, 4.804705e+002
5.480761e+002, 4.839344e+002
5.485582e+002, 4.867071e+002
5.490403e+002, 4.879027e+002
5.495225e+002, 4.885827e+002
5.500046e+002, 4.899878e+002
5.504867e+002, 4.923695e+002
5.509688e+002, 4.949920e+002
5.514509e+002, 4.978551e+002
5.519330e+002, 5.008431e+002
5.524152e+002, 5.033584e+002
5.528973e+002, 5.052922e+002
5.533794e+002, 5.074434e+002
5.538615e+002, 5.102509e+002
5.543436e+002, 5.136300e+002
5.548257e+002, 5.173395e+002
5.553079e+002, 5.213795e+002
5.557900e+002, 5.251631e+002
5.562721e+002, 5.277579e+002
5.567542e+002, 5.297576e+002
5.572363e+002, 5.322634e+002
5.577184e+002, 5.356195e+002
5.582006e+002, 5.391981e+002
5.586827e+002, 5.424056e+002
5.591648e+002, 5.455115e+002
5.596469e+002, 5.490408e+002
5.601290e+002, 5.532162e+002
5.606111e+002, 5.577938e+002
5.610933e+002, 5.627441e+002
5.615754e+002, 5.680377e+002
5.620575e+002, 5.733736e+002
5.625396e+002, 5.784061e+002
5.630217e+002, 5.837679e+002
5.635038e+002, 5.898848e+002
5.639860e+002, 5.970842e+002
5.644681e+002, 6.036106e+002
5.649502e+002, 6.093610e+002
5.654323e+002, 6.145851e+002
5.659144e+002, 6.197867e+002
5.663965e+002, 6.251659e+002
5.668787e+002, 6.285201e+002
5.673608e+002, 6.295187e+002
5.678429e+002, 6.283613e+002
5.683250e+002, 6.253497e+002
5.688071e+002, 6.204905e+002
5.692892e+002, 6.137637e+002
5.697714e+002, 6.043663e+002
5.702535e+002, 5.936575e+002
5.707356e+002, 5.833574e+002
5.712177e+002, 5.733522e+002
5.716998e+002, 5.638819e+002
5.721819e+002, 5.548806e+002
5.726641e+002, 5.463378e+002
5.731462e+002, 5.380340e+002
5.736283e+002, 5.296550e+002
5.741104e+002, 5.226877e+002
5.745925e+002, 5.179153e+002
5.750746e+002, 5.145097e+002
5.755568e+002, 5.116572e+002
5.760389e+002, 5.096256e+002
5.765210e+002, 5.077510e+002
5.770031e+002, 5.059788e+002
5.774852e+002, 5.043499e+002
5.779673e+002, 5.029235e+002
5.784495e+002, 5.016699e+002
5.789316e+002, 5.006846e+002
5.794137e+002, 4.999709e+002
5.798958e+002, 4.995617e+002
5.803779e+002, 4.995761e+002
5.808600e+002, 5.000241e+002
5.813422e+002, 5.007871e+002
5.818243e+002, 5.019384e+002
5.823064e+002, 5.033272e+002
5.827885e+002, 5.045475e+002
5.832706e+002, 5.055621e+002
5.837527e+002, 5.066050e+002
5.842349e+002, 5.078185e+002
5.847170e+002, 5.091972e+002
5.851991e+002, 5.107516e+002
5.856812e+002, 5.126375e+002
5.861633e+002, 5.144491e+002
5.866454e+002, 5.159099e+002
5.871276e+002, 5.171960e+002
5.876097e+002, 5.186091e+002
5.880918e+002, 5.200088e+002
5.885739e+002, 5.217822e+002
5.890560e+002, 5.242437e+002
5.895381e+002, 5.272396e+002
5.900203e+002, 5.295844e+002
5.905024e+002, 5.309388e+002
5.909845e+002, 5.323376e+002
5.914666e+002, 5.343514e+002
5.919487e+002, 5.370036e+002
5.924308e+002, 5.393613e+002
5.929130e+002, 5.414041e+002
5.933951e+002, 5.433118e+002
5.938772e+002, 5.450355e+002
5.943593e+002, 5.467376e+002
5.948414e+002, 5.490322e+002
5.953235e+002, 5.521531e+002
5.958057e+002, 5.553868e+002
5.962878e+002, 5.581379e+002
5.967699e+002, 5.604653e+002
5.972520e+002, 5.624406e+002
5.977341e+002, 5.638196e+002
5.982162e+002, 5.651381e+002
5.986984e+002, 5.667635e+002
5.991805e+002, 5.685471e+002
5.996626e+002, 5.700538e+002
6.001447e+002, 5.717645e+002
6.006268e+002, 5.725953e+002
6.011089e+002, 5.720209e+002
6.015911e+002, 5.699519e+002
6.020732e+002, 5.676352e+002
6.025553e+002, 5.649431e+002
6.030374e+002, 5.622410e+002
6.035195e+002, 5.599208e+002
6.040016e+002, 5.580572e+002
6.044838e+002, 5.558029e+002
6.049659e+002, 5.531736e+002
6.054480e+002, 5.500409e+002
6.059301e+002, 5.457406e+002
6.064122e+002, 5.406830e+002
6.068943e+002, 5.364973e+002
6.073765e+002, 5.338464e+002
6.078586e+002, 5.318767e+002
6.083407e+002, 5.300402e+002
6.088228e+002, 5.281795e+002
6.093049e+002, 5.259631e+002
6.097870e+002, 5.230245e+002
6.102692e+002, 5.198411e+002
6.107513e+002, 5.163889e+002
6.112334e+002, 5.127565e+002
6.117155e+002, 5.098165e+002
6.121976e+002, 5.084503e+002
6.126797e+002, 5.071571e+002
6.131619e+002, 5.051968e+002
6.136440e+002, 5.023112e+002
6.141261e+002, 4.998776e+002
6.146082e+002, 4.978979e+002
6.150903e+002, 4.963311e+002
6.155724e+002, 4.951898e+002
6.160546e+002, 4.944928e+002
6.165367e+002, 4.938929e+002
6.170188e+002, 4.934509e+002
6.175009e+002, 4.928258e+002
6.179830e+002, 4.912260e+002
6.184651e+002, 4.889637e+002
6.189473e+002, 4.871378e+002
6.194294e+002, 4.863976e+002
6.199115e+002, 4.859634e+002
6.203936e+002, 4.851252e+002
6.208757e+002, 4.839696e+002
6.213578e+002, 4.827518e+002
6.218400e+002, 4.814435e+002
6.223221e+002, 4.802228e+002
6.228042e+002, 4.791021e+002
6.232863e+002, 4.780766e+002
6.237684e+002, 4.775233e+002
6.242505e+002, 4.780097e+002
6.247327e+002, 4.784583e+002
6.252148e+002, 4.782792e+002
6.256969e+002, 4.772354e+002
6.261790e+002, 4.765671e+002
6.266611e+002, 4.763872e+002
6.271432e+002, 4.763642e+002
6.276254e+002, 4.762938e+002
6.281075e+002, 4.761495e+002
6.285896e+002, 4.753727e+002
6.290717e+002, 4.736816e+002
6.295538e+002, 4.718878e+002
6.300359e+002, 4.710591e+002
6.305181e+002, 4.710006e+002
6.310002e+002, 4.712193e+002
6.314823e+002, 4.719234e+002
6.319644e+002, 4.724274e+002
6.324465e+002, 4.720286e+002
6.329286e+002, 4.709932e+002
6.334108e+002, 4.701695e+002
6.338929e+002, 4.701380e+002
6.343750e+002, 4.700862e+002
6.348571e+002, 4.695939e+002
6.353392e+002, 4.686199e+002
6.358214e+002, 4.679529e+002
6.363035e+002, 4.675880e+002
6.367856e+002, 4.675373e+002
6.372677e+002, 4.678963e+002
6.377498e+002, 4.687445e+002
6.382319e+002, 4.694306e+002
6.387141e+002, 4.699573e+002
6.391962e+002, 4.703564e+002
6.396783e+002, 4.707769e+002
6.401604e+002, 4.711262e+002
6.406425e+002, 4.710118e+002
6.411246e+002, 4.703145e+002
6.416068e+002, 4.692980e+002
6.420889e+002, 4.677977e+002
6.425710e+002, 4.662357e+002
6.430531e+002, 4.653693e+002
6.435352e+002, 4.662477e+002
6.440173e+002, 4.670651e+002
6.444995e+002, 4.668014e+002
6.449816e+002, 4.658758e+002
6.454637e+002, 4.655043e+002
6.459458e+002, 4.665664e+002
6.464279e+002, 4.674281e+002
6.469100e+002, 4.675786e+002
6.473922e+002, 4.670952e+002
6.478743e+002, 4.670468e+002
6.483564e+002, 4.675771e+002
6.488385e+002, 4.681059e+002
6.493206e+002, 4.682140e+002
6.498027e+002, 4.679709e+002
6.502849e+002, 4.680438e+002
6.507670e+002, 4.684511e+002
6.512491e+002, 4.688932e+002
6.517312e+002, 4.690217e+002
6.522133e+002, 4.690252e+002
6.526954e+002, 4.693008e+002
6.531776e+002, 4.700411e+002
6.536597e+002, 4.705263e+002
6.541418e+002, 4.700450e+002
6.546239e+002, 4.691826e+002
6.551060e+002, 4.686188e+002
6.555881e+002, 4.687172e+002
6.560703e+002, 4.688837e+002
6.565524e+002, 4.690424e+002
6.570345e+002, 4.692191e+002
6.575166e+002, 4.694019e+002
6.579987e+002, 4.693996e+002
6.584808e+002, 4.699677e+002
6.589630e+002, 4.716664e+002
6.594451e+002, 4.738835e+002
6.599272e+002, 4.744264e+002
6.604093e+002, 4.732931e+002
6.608914e+002, 4.716739e+002
6.613735e+002, 4.698342e+002
6.618557e+002, 4.680795e+002
6.623378e+002, 4.668868e+002
6.628199e+002, 4.662583e+002
6.633020e+002, 4.661681e+002
6.637841e+002, 4.673505e+002
6.642662e+002, 4.685601e+002
6.647484e+002, 4.685762e+002
6.652305e+002, 4.670107e+002
6.657126e+002, 4.659738e+002
6.661947e+002, 4.662448e+002
6.666768e+002, 4.670604e+002
6.671589e+002, 4.679349e+002
6.676411e+002, 4.693349e+002
6.681232e+002, 4.696642e+002
6.686053e+002, 4.684798e+002
6.690874e+002, 4.668126e+002
6.695695e+002, 4.659081e+002
6.700516e+002, 4.657526e+002
6.705338e+002, 4.660511e+002
6.710159e+002, 4.668941e+002
6.714980e+002, 4.678160e+002
6.719801e+002, 4.680818e+002
6.724622e+002, 4.678527e+002
6.729443e+002, 4.675626e+002
6.734265e+002, 4.672852e+002
6.739086e+002, 4.671198e+002
6.743907e+002, 4.671631e+002
6.748728e+002, 4.673802e+002
6.753549e+002, 4.676542e+002
6.758370e+002, 4.681751e+002
6.763192e+002, 4.685326e+002
6.768013e+002, 4.685469e+002
6.772834e+002, 4.682484e+002
6.777655e+002, 4.678396e+002
6.782476e+002, 4.671293e+002
6.787297e+002, 4.667222e+002
6.792119e+002, 4.671277e+002
6.796940e+002, 4.682780e+002
6.801761e+002, 4.686904e+002
6.806582e+002, 4.683023e+002
6.811403e+002, 4.677914e+002
6.816224e+002, 4.678060e+002
6.821046e+002, 4.680785e+002
6.825867e+002, 4.680356e+002
6.830688e+002, 4.675557e+002
6.835509e+002, 4.671824e+002
6.840330e+002, 4.674335e+002
6.845151e+002, 4.679041e+002
6.849973e+002, 4.681640e+002
6.854794e+002, 4.678539e+002
6.859615e+002, 4.677835e+002
6.864436e+002, 4.684120e+002
6.869257e+002, 4.691890e+002
6.874078e+002, 4.694419e+002
6.878900e+002, 4.689516e+002
6.883721e+002, 4.685420e+002
6.888542e+002, 4.683593e+002
6.893363e+002, 4.682948e+002
6.898184e+002, 4.680864e+002
6.903005e+002, 4.677575e+002
6.907827e+002, 4.676005e+002
6.912648e+002, 4.679113e+002
6.917469e+002, 4.682635e+002
6.922290e+002, 4.678313e+002
6.927111e+002, 4.668726e+002
6.931932e+002, 4.662419e+002
6.936754e+002, 4.664863e+002
6.941575e+002, 4.670723e+002
6.946396e+002, 4.679821e+002
6.951217e+002, 4.691206e+002
6.956038e+002, 4.695863e+002
6.960859e+002, 4.685638e+002
6.965681e+002, 4.675370e+002
6.970502e+002, 4.670563e+002
6.975323e+002, 4.671432e+002
6.980144e+002, 4.672788e+002
6.984965e+002, 4.675017e+002
6.989786e+002, 4.676469e+002
6.994608e+002, 4.674906e+002
6.999429e+002, 4.671358e+002
7.004250e+002, 4.671911e+002
7.009071e+002, 4.677316e+002
7.013892e+002, 4.680013e+002
7.018713e+002, 4.669974e+002
7.023535e+002, 4.654875e+002
7.028356e+002, 4.644193e+002
7.033177e+002, 4.640397e+002
7.037998e+002, 4.639221e+002
7.042819e+002, 4.640929e+002
7.047640e+002, 4.643432e+002
7.052462e+002, 4.644355e+002
7.057283e+002, 4.641212e+002
7.062104e+002, 4.640677e+002
7.066925e+002, 4.644536e+002
7.071746e+002, 4.649635e+002
7.076567e+002, 4.649657e+002
7.081389e+002, 4.644023e+002
7.086210e+002, 4.643269e+002
7.091031e+002, 4.651396e+002
7.095852e+002, 4.662660e+002
7.100673e+002, 4.668785e+002
7.105494e+002, 4.670206e+002
7.110316e+002, 4.668395e+002
7.115137e+002, 4.659393e+002
7.119958e+002, 4.651622e+002
7.124779e+002, 4.652759e+002
7.129600e+002, 4.659886e+002
7.134421e+002, 4.664029e+002
7.139243e+002, 4.660509e+002
7.144064e+002, 4.656060e+002
7.148885e+002, 4.651855e+002
7.153706e+002, 4.648146e+002
7.158527e+002, 4.647843e+002
7.163348e+002, 4.652436e+002
7.168170e+002, 4.655903e+002
7.172991e+002, 4.654911e+002
7.177812e+002, 4.650273e+002
7.182633e+002, 4.645135e+002
7.187454e+002, 4.639517e+002
7.192275e+002, 4.636785e+002
7.197097e+002, 4.640450e+002
7.201918e+002, 4.647623e+002
7.206739e+002, 4.657375e+002
7.211560e+002, 4.669536e+002
7.216381e+002, 4.674937e+002
7.221202e+002, 4.659923e+002
7.226024e+002, 4.643294e+002
7.230845e+002, 4.638947e+002
7.235666e+002, 4.653663e+002
7.240487e+002, 4.662800e+002
7.245308e+002, 4.664605e+002
7.250129e+002, 4.663315e+002
7.254951e+002, 4.662070e+002
7.259772e+002, 4.660855e+002
7.264593e+002, 4.659406e+002
7.269414e+002, 4.657343e+002
7.274235e+002, 4.656627e+002
7.279056e+002, 4.660514e+002
7.283878e+002, 4.667273e+002
7.288699e+002, 4.672957e+002
7.293520e+002, 4.676100e+002
7.298341e+002, 4.679772e+002
7.303162e+002, 4.687610e+002
7.307983e+002, 4.696597e+002
7.312805e+002, 4.703045e+002
7.317626e+002, 4.704990e+002
7.322447e+002, 4.705642e+002
7.327268e+002, 4.703511e+002
7.332089e+002, 4.701312e+002
7.336910e+002, 4.704453e+002
7.341732e+002, 4.714839e+002
7.346553e+002, 4.721851e+002
7.351374e+002, 4.722249e+002
7.356195e+002, 4.719653e+002
7.361016e+002, 4.721786e+002
7.365837e+002, 4.727359e+002
7.370659e+002, 4.730729e+002
7.375480e+002, 4.727866e+002
7.380301e+002, 4.723502e+002
7.385122e+002, 4.722109e+002
7.389943e+002, 4.722580e+002
7.394764e+002, 4.722144e+002
7.399586e+002, 4.720248e+002
7.404407e+002, 4.716816e+002
7.409228e+002, 4.707345e+002
7.414049e+002, 4.695261e+002
7.418870e+002, 4.698749e+002
7.423691e+002, 4.725757e+002
7.428513e+002, 4.746764e+002
7.433334e+002, 4.748593e+002
7.438155e+002, 4.736049e+002
7.442976e+002, 4.727956e+002
7.447797e+002, 4.724266e+002
7.452618e+002, 4.723824e+002
7.457440e+002, 4.727581e+002
7.462261e+002, 4.733154e+002
7.467082e+002, 4.738461e+002
7.471903e+002, 4.743238e+002
7.476724e+002, 4.746489e+002
7.481545e+002, 4.745934e+002
7.486367e+002, 4.745270e+002
7.491188e+002, 4.746481e+002
7.496009e+002, 4.749804e+002
7.500830e+002, 4.753935e+002
7.505651e+002, 4.760605e+002
7.510472e+002, 4.764964e+002
7.515294e+002, 4.762279e+002
7.520115e+002, 4.752884e+002
7.524936e+002, 4.749480e+002
7.529757e+002, 4.752199e+002
7.534578e+002, 4.758073e+002
7.539399e+002, 4.767037e+002
7.544221e+002, 4.776488e+002
7.549042e+002, 4.782509e+002
7.553863e+002, 4.784715e+002
7.558684e+002, 4.784121e+002
7.563505e+002, 4.778047e+002
7.568326e+002, 4.771603e+002
7.573148e+002, 4.769208e+002
7.577969e+002, 4.774003e+002
7.582790e+002, 4.775542e+002
7.587611e+002, 4.772286e+002
7.592432e+002, 4.767870e+002
7.597253e+002, 4.764535e+002
7.602075e+002, 4.762164e+002
7.606896e+002, 4.764396e+002
7.611717e+002, 4.771913e+002
7.616538e+002, 4.781856e+002
7.621359e+002, 4.795027e+002
7.626180e+002, 4.807565e+002
7.631002e+002, 4.810348e+002
7.635823e+002, 4.797711e+002
7.640644e+002, 4.788585e+002
7.645465e+002, 4.798156e+002
7.650286e+002, 4.814261e+002
7.655107e+002, 4.823745e+002
7.659929e+002, 4.819849e+002
7.664750e+002, 4.816781e+002
7.669571e+002, 4.814361e+002
7.674392e+002, 4.813144e+002
7.679213e+002, 4.812651e+002
7.684034e+002, 4.812674e+002
7.688856e+002, 4.821270e+002
7.693677e+002, 4.842183e+002
7.698498e+002, 4.863656e+002
7.703319e+002, 4.869997e+002
7.708140e+002, 4.865584e+002
7.712961e+002, 4.859428e+002
7.717783e+002, 4.853020e+002
7.722604e+002, 4.847618e+002
7.727425e+002, 4.842388e+002
7.732246e+002, 4.838999e+002
7.737067e+002, 4.840108e+002
7.741888e+002, 4.851191e+002
7.746710e+002, 4.858913e+002
7.751531e+002, 4.861302e+002
7.756352e+002, 4.860575e+002
7.761173e+002, 4.860407e+002
7.765994e+002, 4.860831e+002
7.770815e+002, 4.861510e+002
7.775637e+002, 4.862307e+002
7.780458e+002, 4.863467e+002
7.785279e+002, 4.864742e+002
7.790100e+002, 4.866667e+002
7.794921e+002, 4.870557e+002
7.799742e+002, 4.881128e+002
7.804564e+002, 4.888799e+002
7.809385e+002, 4.885720e+002
7.814206e+002, 4.877163e+002
7.819027e+002, 4.874994e+002
7.823848e+002, 4.886412e+002
7.828669e+002, 4.892733e+002
7.833491e+002, 4.888876e+002
7.838312e+002, 4.879743e+002
7.843133e+002, 4.877088e+002
7.847954e+002, 4.880839e+002
7.852775e+002, 4.887491e+002
7.857596e+002, 4.898673e+002
7.862418e+002, 4.908020e+002
7.867239e+002, 4.902077e+002
7.872060e+002, 4.887198e+002
7.876881e+002, 4.878744e+002
7.881702e+002, 4.889146e+002
7.886523e+002, 4.901346e+002
7.891345e+002, 4.909913e+002
7.896166e+002, 4.914989e+002
7.900987e+002, 4.917783e+002
7.905808e+002, 4.917199e+002
7.910629e+002, 4.916436e+002
7.915450e+002, 4.915869e+002
7.920272e+002, 4.915795e+002
7.925093e+002, 4.916845e+002
7.929914e+002, 4.919056e+002
7.934735e+002, 4.922990e+002
7.939556e+002, 4.929258e+002
7.944377e+002, 4.937017e+002
7.949199e+002, 4.949636e+002
7.954020e+002, 4.963225e+002
7.958841e+002, 4.967020e+002
7.963662e+002, 4.943423e+002
7.968483e+002, 4.923922e+002
7.973304e+002, 4.922381e+002
7.978126e+002, 4.933556e+002
7.982947e+002, 4.941628e+002
7.987768e+002, 4.946284e+002
7.992589e+002, 4.948623e+002
7.997410e+002, 4.948348e+002
8.002231e+002, 4.946559e+002
8.007053e+002, 4.945746e+002
8.011874e+002, 4.945919e+002
8.016695e+002, 4.947050e+002
8.021516e+002, 4.949076e+002
8.026337e+002, 4.952128e+002
8.031158e+002, 4.957376e+002
8.035980e+002, 4.963761e+002
8.040801e+002, 4.968581e+002
8.045622e+002, 4.967124e+002
8.050443e+002, 4.968602e+002
8.055264e+002, 4.978551e+002
8.060085e+002, 4.992608e+002
8.064907e+002, 4.994511e+002
8.069728e+002, 4.980854e+002
8.074549e+002, 4.973077e+002
8.079370e+002, 4.980753e+002
8.084191e+002, 4.995793e+002
8.089012e+002, 5.001110e+002
8.093834e+002, 4.999059e+002
8.098655e+002, 4.998097e+002
8.103476e+002, 5.005873e+002
8.108297e+002, 5.012750e+002
8.113118e+002, 5.010995e+002
8.117939e+002, 5.003511e+002
8.122761e+002, 4.998907e+002
8.127582e+002, 4.997815e+002
8.132403e+002, 5.001006e+002
8.137224e+002, 5.010777e+002
8.142045e+002, 5.024009e+002
8.146866e+002, 5.030371e+002
8.151688e+002, 5.029659e+002
8.156509e+002, 5.031120e+002
8.161330e+002, 5.039296e+002
8.166151e+002, 5.049899e+002
8.170972e+002, 5.055742e+002
8.175793e+002, 5.058843e+002
8.180615e+002, 5.064630e+002
8.185436e+002, 5.081381e+002
8.190257e+002, 5.094757e+002
8.195078e+002, 5.095973e+002
8.199899e+002, 5.089571e+002
8.204720e+002, 5.088364e+002
8.209542e+002, 5.093864e+002
8.214363e+002, 5.101299e+002
8.219184e+002, 5.111100e+002
8.224005e+002, 5.120649e+002
8.228826e+002, 5.121429e+002
8.233647e+002, 5.115523e+002
8.238469e+002, 5.115247e+002
8.243290e+002, 5.128948e+002
8.248111e+002, 5.144693e+002
8.252932e+002, 5.150694e+002
8.257753e+002, 5.151080e+002
8.262574e+002, 5.153822e+002
8.267396e+002, 5.162908e+002
8.272217e+002, 5.172802e+002
8.277038e+002, 5.185139e+002
8.281859e+002, 5.196478e+002
8.286681e+002, 5.199255e+002
8.291502e+002, 5.191976e+002
8.296323e+002, 5.186437e+002
8.301144e+002, 5.185208e+002
8.305966e+002, 5.187031e+002
8.310787e+002, 5.191386e+002
8.315608e+002, 5.197142e+002
8.320429e+002, 5.201733e+002
8.325250e+002, 5.204043e+002
8.330071e+002, 5.205276e+002
8.334893e+002, 5.206056e+002
8.339714e+002, 5.206149e+002
8.344535e+002, 5.204923e+002
8.349356e+002, 5.199712e+002
8.354177e+002, 5.198705e+002
8.358998e+002, 5.204083e+002
8.363820e+002, 5.211791e+002
8.368641e+002, 5.215675e+002
8.373462e+002, 5.216149e+002
8.378283e+002, 5.217316e+002
8.383104e+002, 5.220410e+002
8.387925e+002, 5.222852e+002
8.392747e+002, 5.222231e+002
8.397568e+002, 5.219290e+002
8.402389e+002, 5.214528e+002
8.407210e+002, 5.203636e+002
8.412031e+002, 5.199198e+002
8.416852e+002, 5.210768e+002
8.421674e+002, 5.224810e+002
8.426495e+002, 5.227860e+002
8.431316e+002, 5.217632e+002
8.436137e+002, 5.209937e+002
8.440958e+002, 5.205986e+002
8.445779e+002, 5.204345e+002
8.450601e+002, 5.203254e+002
8.455422e+002, 5.203251e+002
8.460243e+002, 5.205726e+002
8.465064e+002, 5.211250e+002
8.469885e+002, 5.217321e+002
8.474706e+002, 5.221942e+002
8.479528e+002, 5.226853e+002
8.484349e+002, 5.233922e+002
8.489170e+002, 5.244815e+002
8.493991e+002, 5.252737e+002
8.498812e+002, 5.256673e+002
8.503633e+002, 5.259509e+002
8.508455e+002, 5.263098e+002
8.513276e+002, 5.267544e+002
8.518097e+002, 5.274797e+002
8.522918e+002, 5.285128e+002
8.527739e+002, 5.293082e+002
8.532560e+002, 5.291823e+002
8.537382e+002, 5.287932e+002
8.542203e+002, 5.286895e+002
8.547024e+002, 5.289309e+002
8.551845e+002, 5.296059e+002
8.556666e+002, 5.316920e+002
8.561487e+002, 5.331659e+002
8.566309e+002, 5.326490e+002
8.571130e+002, 5.301986e+002
8.575951e+002, 5.298015e+002
8.580772e+002, 5.316117e+002
8.585593e+002, 5.336160e+002
8.590414e+002, 5.343656e+002
8.595236e+002, 5.345071e+002
8.600057e+002, 5.350572e+002
8.604878e+002, 5.359717e+002
8.609699e+002, 5.367678e+002
8.614520e+002, 5.371748e+002
8.619341e+002, 5.374641e+002
8.624163e+002, 5.375430e+002
8.628984e+002, 5.375286e+002
8.633805e+002, 5.384520e+002
8.638626e+002, 5.407882e+002
8.643447e+002, 5.424556e+002
8.648268e+002, 5.423631e+002
8.653090e+002, 5.412899e+002
8.657911e+002, 5.412406e+002
8.662732e+002, 5.419695e+002
8.667553e+002, 5.424726e+002
8.672374e+002, 5.418068e+002
8.677195e+002, 5.411703e+002
8.682017e+002, 5.413071e+002
8.686838e+002, 5.420340e+002
8.691659e+002, 5.428807e+002
8.696480e+002, 5.442381e+002
8.701301e+002, 5.448752e+002
8.706122e+002, 5.443846e+002
8.710944e+002, 5.432366e+002
8.715765e+002, 5.423563e+002
8.720586e+002, 5.417316e+002
8.725407e+002, 5.412179e+002
8.730228e+002, 5.407331e+002
8.735049e+002, 5.404647e+002
8.739871e+002, 5.407743e+002
8.744692e+002, 5.413749e+002
8.749513e+002, 5.418268e+002
8.754334e+002, 5.421236e+002
8.759155e+002, 5.420950e+002
8.763976e+002, 5.415165e+002
8.768798e+002, 5.408393e+002
8.773619e+002, 5.405201e+002
8.778440e+002, 5.405545e+002
8.783261e+002, 5.411696e+002
8.788082e+002, 5.425129e+002
8.792903e+002, 5.437728e+002
8.797725e+002, 5.439984e+002
8.802546e+002, 5.436136e+002
8.807367e+002, 5.431316e+002
8.812188e+002, 5.425427e+002
8.817009e+002, 5.423270e+002
8.821830e+002, 5.433560e+002
8.826652e+002, 5.442328e+002
8.831473e+002, 5.438599e+002
8.836294e+002, 5.419211e+002
8.841115e+002, 5.409197e+002
8.845936e+002, 5.410436e+002
8.850757e+002, 5.411962e+002
8.855579e+002, 5.402169e+002
8.860400e+002, 5.387701e+002
8.865221e+002, 5.384449e+002
8.870042e+002, 5.392009e+002
8.874863e+002, 5.395672e+002
8.879684e+002, 5.380134e+002
8.884506e+002, 5.365246e+002
8.889327e+002, 5.363319e+002
8.894148e+002, 5.373758e+002
8.898969e+002, 5.384021e+002
8.903790e+002, 5.395536e+002
8.908611e+002, 5.402132e+002
8.913433e+002, 5.400387e+002
8.918254e+002, 5.392460e+002
8.923075e+002, 5.382344e+002
8.927896e+002, 5.370613e+002
8.932717e+002, 5.360228e+002
8.937538e+002, 5.354535e+002
8.942360e+002, 5.348459e+002
8.947181e+002, 5.337686e+002
8.952002e+002, 5.324349e+002
8.956823e+002, 5.314234e+002
8.961644e+002, 5.307455e+002
8.966465e+002, 5.304301e+002
8.971287e+002, 5.305318e+002
8.976108e+002, 5.309378e+002
8.980929e+002, 5.315779e+002
8.985750e+002, 5.323766e+002
8.990571e+002, 5.329238e+002
8.995392e+002, 5.330314e+002
9.000214e+002, 5.331398e+002
9.005035e+002, 5.336140e+002
9.009856e+002, 5.342906e+002
9.014677e+002, 5.349774e+002
9.019498e+002, 5.354061e+002
9.024319e+002, 5.363036e+002
9.029141e+002, 5.379081e+002
9.033962e+002, 5.396456e+002
9.038783e+002, 5.409233e+002
9.043604e+002, 5.418073e+002
9.048425e+002, 5.430009e+002
9.053246e+002, 5.445642e+002
9.058068e+002, 5.464242e+002
9.062889e+002, 5.490533e+002
9.067710e+002, 5.516002e+002
9.072531e+002, 5.529215e+002
9.077352e+002, 5.527663e+002
9.082173e+002, 5.538984e+002
9.086995e+002, 5.577167e+002
9.091816e+002, 5.614536e+002
9.096637e+002, 5.638744e+002
9.101458e+002, 5.651517e+002
9.106279e+002, 5.661776e+002
9.111100e+002, 5.669746e+002
9.115922e+002, 5.679732e+002
9.120743e+002, 5.696257e+002
9.125564e+002, 5.714547e+002
9.130385e+002, 5.730365e+002
9.135206e+002, 5.743938e+002
9.140027e+002, 5.756456e+002
9.144849e+002, 5.766508e+002
9.149670e+002, 5.778102e+002
9.154491e+002, 5.794452e+002
9.159312e+002, 5.811004e+002
9.164133e+002, 5.817358e+002
9.168954e+002, 5.813663e+002
9.173776e+002, 5.808603e+002
9.178597e+002, 5.804717e+002
9.183418e+002, 5.798645e+002
9.188239e+002, 5.785909e+002
9.193060e+002, 5.768892e+002
9.197881e+002, 5.750734e+002
9.202703e+002, 5.731108e+002
9.207524e+002, 5.712560e+002
9.212345e+002, 5.697382e+002
9.217166e+002, 5.681353e+002
9.221987e+002, 5.661084e+002
9.226808e+002, 5.636495e+002
9.231630e+002, 5.609500e+002
9.236451e+002, 5.579998e+002
9.241272e+002, 5.548674e+002
9.246093e+002, 5.512695e+002
9.250914e+002, 5.477277e+002
9.255735e+002, 5.449583e+002
9.260557e+002, 5.430193e+002
9.265378e+002, 5.410313e+002
9.270199e+002, 5.388136e+002
9.275020e+002, 5.364357e+002
9.279841e+002, 5.339334e+002
9.284662e+002, 5.312811e+002
9.289484e+002, 5.280276e+002
9.294305e+002, 5.241739e+002
9.299126e+002, 5.209222e+002
9.303947e+002, 5.190654e+002
9.308768e+002, 5.178948e+002
9.313589e+002, 5.168488e+002
9.318411e+002, 5.158497e+002
9.323232e+002, 5.147458e+002
9.328053e+002, 5.138746e+002
9.332874e+002, 5.123104e+002
9.337695e+002, 5.093255e+002
9.342516e+002, 5.061487e+002
9.347338e+002, 5.049962e+002
9.352159e+002, 5.058481e+002
9.356980e+002, 5.058503e+002
9.361801e+002, 5.044493e+002
9.366622e+002, 5.026904e+002
9.371443e+002, 5.015955e+002
9.376265e+002, 5.007739e+002
9.381086e+002, 4.997102e+002
9.385907e+002, 4.981504e+002
9.390728e+002, 4.969930e+002
9.395549e+002, 4.966121e+002
9.400370e+002, 4.963738e+002
9.405192e+002, 4.959621e+002
9.410013e+002, 4.953766e+002
9.414834e+002, 4.944775e+002
9.419655e+002, 4.932716e+002
9.424476e+002, 4.925586e+002
9.429297e+002, 4.934642e+002
9.434119e+002, 4.946559e+002
9.438940e+002, 4.948375e+002
9.443761e+002, 4.941418e+002
9.448582e+002, 4.933332e+002
9.453403e+002, 4.925865e+002
9.458224e+002, 4.917131e+002
9.463046e+002, 4.905579e+002
9.467867e+002, 4.893570e+002
9.472688e+002, 4.888275e+002
9.477509e+002, 4.888663e+002
9.482330e+002, 4.885206e+002
9.487151e+002, 4.872621e+002
9.491973e+002, 4.862675e+002
9.496794e+002, 4.868448e+002
9.501615e+002, 4.882018e+002
9.506436e+002, 4.894183e+002
9.511257e+002, 4.905160e+002
9.516078e+002, 4.909810e+002
9.520900e+002, 4.906237e+002
9.525721e+002, 4.899576e+002
9.530542e+002, 4.891767e+002
9.535363e+002, 4.884010e+002
9.540184e+002, 4.885866e+002
9.545005e+002, 4.897277e+002
9.549827e+002, 4.907801e+002
9.554648e+002, 4.909304e+002
9.559469e+002, 4.907748e+002
9.564290e+002, 4.906158e+002
9.569111e+002, 4.904984e+002
9.573932e+002, 4.907043e+002
9.578754e+002, 4.914482e+002
9.583575e+002, 4.919795e+002
9.588396e+002, 4.919364e+002
9.593217e+002, 4.916556e+002
9.598038e+002, 4.921494e+002
9.602859e+002, 4.931387e+002
9.607681e+002, 4.936045e+002
9.612502e+002, 4.928281e+002
9.617323e+002, 4.920058e+002
9.622144e+002, 4.921617e+002
9.626965e+002, 4.925028e+002
9.631786e+002, 4.918991e+002
9.636608e+002, 4.896853e+002
9.641429e+002, 4.884135e+002
9.646250e+002, 4.882967e+002
9.651071e+002, 4.887607e+002
9.655892e+002, 4.897448e+002
9.660714e+002, 4.907570e+002
9.665535e+002, 4.904604e+002
9.670356e+002, 4.887993e+002
9.675177e+002, 4.874736e+002
9.679998e+002, 4.874874e+002
9.684819e+002, 4.879571e+002
9.689641e+002, 4.885788e+002
9.694462e+002, 4.892757e+002
9.699283e+002, 4.894593e+002
9.704104e+002, 4.890131e+002
9.708925e+002, 4.889228e+002
9.713746e+002, 4.897231e+002
9.718568e+002, 4.908676e+002
9.723389e+002, 4.914987e+002
9.728210e+002, 4.918392e+002
9.733031e+002, 4.923727e+002
9.737852e+002, 4.932406e+002
9.742673e+002, 4.943565e+002
9.747495e+002, 4.959875e+002
9.752316e+002, 4.976259e+002
9.757137e+002, 4.986338e+002
9.761958e+002, 4.989841e+002
9.766779e+002, 4.998022e+002
9.771600e+002, 5.012298e+002
9.776422e+002, 5.025450e+002
9.781243e+002, 5.028413e+002
9.786064e+002, 5.029058e+002
9.790885e+002, 5.037786e+002
9.795706e+002, 5.055580e+002
9.800527e+002, 5.066664e+002
9.805349e+002, 5.064681e+002
9.810170e+002, 5.061568e+002
9.814991e+002, 5.061792e+002
9.819812e+002, 5.063756e+002
9.824633e+002, 5.061409e+002
9.829454e+002, 5.055384e+002
9.834276e+002, 5.049675e+002
9.839097e+002, 5.045788e+002
9.843918e+002, 5.042827e+002
9.848739e+002, 5.043956e+002
9.853560e+002, 5.044219e+002
9.858381e+002, 5.034854e+002
9.863203e+002, 5.007790e+002
9.868024e+002, 4.989604e+002
9.872845e+002, 4.984032e+002
9.877666e+002, 4.980613e+002
9.882487e+002, 4.967003e+002
9.887308e+002, 4.947389e+002
9.892130e+002, 4.931648e+002
9.896951e+002, 4.920751e+002
9.901772e+002, 4.913229e+002
9.906593e+002, 4.910300e+002
9.911414e+002, 4.908664e+002
9.916235e+002, 4.907763e+002
9.921057e+002, 4.906830e+002
9.925878e+002, 4.900599e+002
9.930699e+002, 4.888116e+002
9.935520e+002, 4.876764e+002
9.940341e+002, 4.869263e+002
9.945162e+002, 4.863769e+002
9.949984e+002, 4.857421e+002
9.954805e+002, 4.851185e+002
9.959626e+002, 4.847014e+002
9.964447e+002, 4.848343e+002
9.969268e+002, 4.847101e+002
9.974089e+002, 4.841938e+002
9.978911e+002, 4.834320e+002
9.983732e+002, 4.824705e+002
9.988553e+002, 4.813351e+002
9.993374e+002, 4.803403e+002
9.998195e+002, 4.795065e+002
1.000302e+003, 4.789709e+002
1.000784e+003, 4.790519e+002
1.001266e+003, 4.792938e+002
1.001748e+003, 4.793684e+002
1.002230e+003, 4.792492e+002
1.002712e+003, 4.789419e+002
1.003194e+003, 4.783466e+002
1.003676e+003, 4.777500e+002
1.004159e+003, 4.771126e+002
1.004641e+003, 4.766493e+002
1.005123e+003, 4.770608e+002
1.005605e+003, 4.780177e+002
1.006087e+003, 4.784893e+002
1.006569e+003, 4.780185e+002
1.007051e+003, 4.774598e+002
1.007533e+003, 4.771276e+002
1.008016e+003, 4.769919e+002
1.008498e+003, 4.770263e+002
1.008980e+003, 4.772703e+002
1.009462e+003, 4.774683e+002
1.009944e+003, 4.776019e+002
1.010426e+003, 4.778731e+002
1.010908e+003, 4.785161e+002
1.011390e+003, 4.793235e+002
1.011872e+003, 4.801578e+002
1.012355e+003, 4.809342e+002
1.012837e+003, 4.813544e+002
1.013319e+003, 4.810485e+002
1.013801e+003, 4.806484e+002
1.014283e+003, 4.799763e+002
1.014765e+003, 4.795541e+002
1.015247e+003, 4.807840e+002
1.015729e+003, 4.833734e+002
1.016211e+003, 4.849590e+002
1.016694e+003, 4.849756e+002
1.017176e+003, 4.844628e+002
1.017658e+003, 4.838325e+002
1.018140e+003, 4.833631e+002
1.018622e+003, 4.834288e+002
1.019104e+003, 4.842057e+002
1.019586e+003, 4.843810e+002
1.020068e+003, 4.836550e+002
1.020551e+003, 4.833712e+002
1.021033e+003, 4.847085e+002
1.021515e+003, 4.866929e+002
1.021997e+003, 4.869085e+002
1.022479e+003, 4.858967e+002
1.022961e+003, 4.852496e+002
1.023443e+003, 4.863490e+002
1.023925e+003, 4.870097e+002
1.024407e+003, 4.859434e+002
1.024890e+003, 4.845762e+002
1.025372e+003, 4.848983e+002
1.025854e+003, 4.869693e+002
1.026336e+003, 4.883139e+002
1.026818e+003, 4.886537e+002
1.027300e+003, 4.887761e+002
1.027782e+003, 4.895494e+002
1.028264e+003, 4.903320e+002
1.028746e+003, 4.903738e+002
1.029229e+003, 4.896194e+002
1.029711e+003, 4.892108e+002
1.030193e+003, 4.894337e+002
1.030675e+003, 4.895149e+002
1.031157e+003, 4.891026e+002
1.031639e+003, 4.885001e+002
1.032121e+003, 4.884812e+002
1.032603e+003, 4.888603e+002
1.033086e+003, 4.890165e+002
1.033568e+003, 4.885323e+002
1.034050e+003, 4.882912e+002
1.034532e+003, 4.891331e+002
1.035014e+003, 4.900814e+002
1.035496e+003, 4.901729e+002
1.035978e+003, 4.892013e+002
1.036460e+003, 4.889819e+002
1.036943e+003, 4.895704e+002
1.037425e+003, 4.901182e+002
1.037907e+003, 4.898864e+002
1.038389e+003, 4.893805e+002
1.038871e+003, 4.888391e+002
1.039353e+003, 4.884471e+002
1.039835e+003, 4.889505e+002
1.040317e+003, 4.915603e+002
1.040799e+003, 4.932289e+002
1.041281e+003, 4.933758e+002
1.041764e+003, 4.925943e+002
1.042246e+003, 4.913543e+002
1.042728e+003, 4.899788e+002
1.043210e+003, 4.898518e+002
1.043692e+003, 4.914188e+002
1.044174e+003, 4.924445e+002
1.044656e+003, 4.904840e+002
1.045138e+003, 4.886545e+002
1.045621e+003, 4.894643e+002
1.046103e+003, 4.926096e+002
1.046585e+003, 4.934170e+002
1.047067e+003, 4.917117e+002
1.047549e+003, 4.900211e+002
1.048031e+003, 4.894816e+002
1.048513e+003, 4.895356e+002
1.048995e+003, 4.897347e+002
1.049478e+003, 4.900219e+002
1.049960e+003, 4.903006e+002
1.050442e+003, 4.906113e+002
1.050924e+003, 4.908080e+002
1.051406e+003, 4.908785e+002
1.051888e+003, 4.908632e+002
1.052370e+003, 4.907200e+002
1.052852e+003, 4.905302e+002
1.053334e+003, 4.905988e+002
1.053817e+003, 4.909191e+002
1.054299e+003, 4.912821e+002
1.054781e+003, 4.916433e+002
1.055263e+003, 4.919478e+002
1.055745e+003, 4.922232e+002
1.056227e+003, 4.924113e+002
1.056709e+003, 4.923220e+002
1.057191e+003, 4.919380e+002
1.057673e+003, 4.915226e+002
1.058156e+003, 4.910748e+002
1.058638e+003, 4.908322e+002
1.059120e+003, 4.912869e+002
1.059602e+003, 4.919237e+002
1.060084e+003, 4.921217e+002
1.060566e+003, 4.916799e+002
1.061048e+003, 4.915541e+002
1.061530e+003, 4.920233e+002
1.062013e+003, 4.921943e+002
1.062495e+003, 4.914003e+002
1.062977e+003, 4.902071e+002
1.063459e+003, 4.901762e+002
1.063941e+003, 4.909284e+002
1.064423e+003, 4.913666e+002
1.064905e+003, 4.907629e+002
1.065387e+003, 4.901976e+002
1.065870e+003, 4.900517e+002
1.066352e+003, 4.900578e+002
1.066834e+003, 4.899865e+002
1.067316e+003, 4.898378e+002
1.067798e+003, 4.896506e+002
1.068280e+003, 4.894263e+002
1.068762e+003, 4.895497e+002
1.069244e+003, 4.909619e+002
1.069726e+003, 4.922663e+002
1.070208e+003, 4.919945e+002
1.070691e+003, 4.905576e+002
1.071173e+003, 4.899202e+002
1.071655e+003, 4.902404e+002
1.072137e+003, 4.910627e+002
1.072619e+003, 4.924346e+002
1.073101e+003, 4.939163e+002
1.073583e+003, 4.947489e+002
1.074065e+003, 4.953544e+002
1.074548e+003, 4.965610e+002
1.075030e+003, 4.985983e+002
1.075512e+003, 5.002326e+002
1.075994e+003, 5.005640e+002
1.076476e+003, 5.011868e+002
1.076958e+003, 5.029025e+002
1.077440e+003, 5.053257e+002
1.077922e+003, 5.070345e+002
1.078405e+003, 5.081323e+002
1.078887e+003, 5.090621e+002
1.079369e+003, 5.096842e+002
1.079851e+003, 5.107687e+002
1.080333e+003, 5.133552e+002
1.080815e+003, 5.162612e+002
1.081297e+003, 5.180816e+002
1.081779e+003, 5.185523e+002
1.082261e+003, 5.194742e+002
1.082744e+003, 5.208697e+002
1.083226e+003, 5.225208e+002
1.083708e+003, 5.243819e+002
1.084190e+003, 5.263292e+002
1.084672e+003, 5.284107e+002
1.085154e+003, 5.304792e+002
1.085636e+003, 5.320248e+002
1.086118e+003, 5.327072e+002
1.086601e+003, 5.335129e+002
1.087083e+003, 5.346753e+002
1.087565e+003, 5.357075e+002
1.088047e+003, 5.358085e+002
1.088529e+003, 5.353690e+002
1.089011e+003, 5.353684e+002
1.089493e+003, 5.359086e+002
1.089975e+003, 5.358858e+002
1.090458e+003, 5.347167e+002
1.090940e+003, 5.329840e+002
1.091422e+003, 5.308995e+002
1.091904e+003, 5.284456e+002
1.092386e+003, 5.256396e+002
1.092868e+003, 5.224728e+002
1.093350e+003, 5.188824e+002
1.093832e+003, 5.146878e+002
1.094314e+003, 5.105967e+002
1.094797e+003, 5.071916e+002
1.095279e+003, 5.040580e+002
1.095761e+003, 5.007018e+002
1.096243e+003, 4.971122e+002
1.096725e+003, 4.941712e+002
1.097207e+003, 4.918985e+002
1.097689e+003, 4.901132e+002
1.098171e+003, 4.889925e+002
1.098653e+003, 4.880313e+002
1.099136e+003, 4.865159e+002
1.099618e+003, 4.847424e+002
1.100100e+003, 4.832573e+002
1.100582e+003, 4.821331e+002
1.101064e+003, 4.814525e+002
1.101546e+003, 4.813735e+002
1.102028e+003, 4.813189e+002
1.102510e+003, 4.805605e+002
1.102993e+003, 4.794946e+002
1.103475e+003, 4.791714e+002
1.103957e+003, 4.794586e+002
1.104439e+003, 4.793146e+002
1.104921e+003, 4.778023e+002
1.105403e+003, 4.764527e+002
1.105885e+003, 4.756615e+002
1.106367e+003, 4.752317e+002
1.106849e+003, 4.747939e+002
1.107332e+003, 4.744117e+002
1.107814e+003, 4.744833e+002
1.108296e+003, 4.751027e+002
1.108778e+003, 4.757352e+002
1.109260e+003, 4.762950e+002
1.109742e+003, 4.765134e+002
1.110224e+003, 4.760298e+002
1.110706e+003, 4.750396e+002
1.111188e+003, 4.744894e+002
1.111671e+003, 4.743760e+002
1.112153e+003, 4.744982e+002
1.112635e+003, 4.748426e+002
1.113117e+003, 4.752521e+002
1.113599e+003, 4.759032e+002
1.114081e+003, 4.763465e+002
1.114563e+003, 4.758683e+002
1.115045e+003, 4.740851e+002
1.115528e+003, 4.731752e+002
1.116010e+003, 4.733457e+002
1.116492e+003, 4.734621e+002
1.116974e+003, 4.724926e+002
1.117456e+003, 4.714343e+002
1.117938e+003, 4.723038e+002
1.118420e+003, 4.742768e+002
1.118902e+003, 4.755855e+002
1.119385e+003, 4.755568e+002
1.119867e+003, 4.749444e+002
1.120349e+003, 4.735454e+002
1.120831e+003, 4.720945e+002
1.121313e+003, 4.711318e+002
1.121795e+003, 4.706871e+002
1.122277e+003, 4.710645e+002
1.122759e+003, 4.721155e+002
1.123241e+003, 4.729711e+002
1.123724e+003, 4.733817e+002
1.124206e+003, 4.732650e+002
1.124688e+003, 4.721671e+002
1.125170e+003, 4.709767e+002
1.125652e+003, 4.713735e+002
1.126134e+003, 4.730673e+002
1.126616e+003, 4.739859e+002
1.127098e+003, 4.738663e+002
1.127580e+003, 4.735451e+002
1.128063e+003, 4.736427e+002
1.128545e+003, 4.736629e+002
1.129027e+003, 4.731566e+002
1.129509e+003, 4.723379e+002
1.129991e+003, 4.719740e+002
1.130473e+003, 4.720791e+002
1.130955e+003, 4.721809e+002
1.131437e+003, 4.721349e+002
1.131920e+003, 4.721708e+002
1.132402e+003, 4.728134e+002
1.132884e+003, 4.734400e+002
1.133366e+003, 4.732874e+002
1.133848e+003, 4.722412e+002
1.134330e+003, 4.716669e+002
1.134812e+003, 4.715978e+002
1.135294e+003, 4.718260e+002
1.135776e+003, 4.723688e+002
1.136259e+003, 4.729811e+002
1.136741e+003, 4.734854e+002
1.137223e+003, 4.737779e+002
1.137705e+003, 4.736636e+002
1.138187e+003, 4.727257e+002
1.138669e+003, 4.722650e+002
1.139151e+003, 4.724418e+002
1.139633e+003, 4.726937e+002
1.140115e+003, 4.725711e+002
1.140598e+003, 4.722958e+002
1.141080e+003, 4.723404e+002
1.141562e+003, 4.726297e+002
1.142044e+003, 4.729547e+002
1.142526e+003, 4.732341e+002
1.143008e+003, 4.735997e+002
1.143490e+003, 4.742593e+002
1.143972e+003, 4.747063e+002
1.144455e+003, 4.742429e+002
1.144937e+003, 4.731756e+002
1.145419e+003, 4.723892e+002
1.145901e+003, 4.719522e+002
1.146383e+003, 4.719547e+002
1.146865e+003, 4.732403e+002
1.147347e+003, 4.739346e+002
1.147829e+003, 4.731113e+002
1.148312e+003, 4.718049e+002
1.148794e+003, 4.718200e+002
1.149276e+003, 4.729068e+002
1.149758e+003, 4.732768e+002
1.150240e+003, 4.727089e+002
1.150722e+003, 4.722263e+002
1.151204e+003, 4.725366e+002
1.151686e+003, 4.730715e+002
1.152168e+003, 4.736925e+002
1.152651e+003, 4.742386e+002
1.153133e+003, 4.740980e+002
1.153615e+003, 4.733097e+002
1.154097e+003, 4.728276e+002
1.154579e+003, 4.728798e+002
1.155061e+003, 4.732296e+002
1.155543e+003, 4.742077e+002
1.156025e+003, 4.749958e+002
1.156507e+003, 4.746011e+002
1.156990e+003, 4.732056e+002
1.157472e+003, 4.726810e+002
1.157954e+003, 4.730967e+002
1.158436e+003, 4.732467e+002
1.158918e+003, 4.724895e+002
1.159400e+003, 4.718692e+002
1.159882e+003, 4.728052e+002
1.160364e+003, 4.742646e+002
1.160847e+003, 4.750008e+002
1.161329e+003, 4.747957e+002
1.161811e+003, 4.746488e+002
1.162293e+003, 4.745696e+002
1.162775e+003, 4.744796e+002
1.163257e+003, 4.742424e+002
1.163739e+003, 4.740865e+002
1.164221e+003, 4.742247e+002
1.164703e+003, 4.746630e+002
1.165186e+003, 4.754747e+002
1.165668e+003, 4.771593e+002
1.166150e+003, 4.779732e+002
1.166632e+003, 4.777439e+002
1.167114e+003, 4.772470e+002
1.167596e+003, 4.769345e+002
1.168078e+003, 4.767775e+002
1.168560e+003, 4.767784e+002
1.169042e+003, 4.768983e+002
1.169525e+003, 4.770385e+002
1.170007e+003, 4.774881e+002
1.170489e+003, 4.773853e+002
1.170971e+003, 4.765500e+002
1.171453e+003, 4.755173e+002
1.171935e+003, 4.745969e+002
1.172417e+003, 4.739258e+002
1.172899e+003, 4.738471e+002
1.173382e+003, 4.742894e+002
1.173864e+003, 4.748457e+002
1.174346e+003, 4.756049e+002
1.174828e+003, 4.761556e+002
1.175310e+003, 4.764418e+002
1.175792e+003, 4.765070e+002
1.176274e+003, 4.763824e+002
1.176756e+003, 4.760882e+002
1.177239e+003, 4.754715e+002
1.177721e+003, 4.745863e+002
1.178203e+003, 4.742489e+002
1.178685e+003, 4.752539e+002
1.179167e+003, 4.762881e+002
1.179649e+003, 4.771812e+002
1.180131e+003, 4.777552e+002
1.180613e+003, 4.774491e+002
1.181095e+003, 4.765909e+002
1.181578e+003, 4.760854e+002
1.182060e+003, 4.760628e+002
1.182542e+003, 4.764759e+002
1.183024e+003, 4.778519e+002
1.183506e+003, 4.790181e+002
1.183988e+003, 4.795508e+002
1.184470e+003, 4.796192e+002
1.184952e+003, 4.794347e+002
1.185434e+003, 4.791465e+002
1.185917e+003, 4.794593e+002
1.186399e+003, 4.807607e+002
1.186881e+003, 4.814342e+002
1.187363e+003, 4.799055e+002
1.187845e+003, 4.784028e+002
1.188327e+003, 4.779867e+002
1.188809e+003, 4.784325e+002
1.189291e+003, 4.789737e+002
1.189774e+003, 4.796211e+002
1.190256e+003, 4.805729e+002
1.190738e+003, 4.822695e+002
1.191220e+003, 4.831652e+002
1.191702e+003, 4.817125e+002
1.192184e+003, 4.799489e+002
1.192666e+003, 4.791185e+002
1.193148e+003, 4.791104e+002
1.193630e+003, 4.792306e+002
1.194113e+003, 4.794908e+002
1.194595e+003, 4.799915e+002
1.195077e+003, 4.810060e+002
1.195559e+003, 4.818335e+002
1.196041e+003, 4.820502e+002
1.196523e+003, 4.819787e+002
1.197005e+003, 4.817554e+002
1.197487e+003, 4.814173e+002
1.197969e+003, 4.817752e+002
1.198452e+003, 4.827094e+002
1.198934e+003, 4.833178e+002
1.199416e+003, 4.829886e+002
1.199898e+003, 4.824019e+002
1.200380e+003, 4.814969e+002
1.200862e+003, 4.807787e+002
1.201344e+003, 4.809153e+002
1.201826e+003, 4.819037e+002
1.202309e+003, 4.821177e+002
1.202791e+003, 4.816042e+002
1.203273e+003, 4.810246e+002
1.203755e+003, 4.804058e+002
1.204237e+003, 4.802227e+002
1.204719e+003, 4.811935e+002
1.205201e+003, 4.824361e+002
1.205683e+003, 4.828149e+002
1.206166e+003, 4.823419e+002
1.206648e+003, 4.822605e+002
1.207130e+003, 4.825986e+002
1.207612e+003, 4.829930e+002
1.208094e+003, 4.832651e+002
1.208576e+003, 4.834650e+002
1.209058e+003, 4.837643e+002
1.209540e+003, 4.839134e+002
1.210022e+003, 4.833095e+002
1.210505e+003, 4.820028e+002
1.210987e+003, 4.818420e+002
1.211469e+003, 4.829269e+002
1.211951e+003, 4.838212e+002
1.212433e+003, 4.832495e+002
1.212915e+003, 4.825668e+002
1.213397e+003, 4.826791e+002
1.213879e+003, 4.831056e+002
1.214361e+003, 4.829916e+002
1.214844e+003, 4.823815e+002
1.215326e+003, 4.819016e+002
1.215808e+003, 4.816234e+002
1.216290e+003, 4.814898e+002
1.216772e+003, 4.813114e+002
1.217254e+003, 4.814381e+002
1.217736e+003, 4.822433e+002
1.218218e+003, 4.833748e+002
1.218701e+003, 4.841759e+002
1.219183e+003, 4.846513e+002
1.219665e+003, 4.849083e+002
1.220147e+003, 4.849504e+002
1.220629e+003, 4.849172e+002
1.221111e+003, 4.848261e+002
1.221593e+003, 4.847530e+002
1.222075e+003, 4.847025e+002
1.222557e+003, 4.847127e+002
1.223040e+003, 4.850050e+002
1.223522e+003, 4.855085e+002
1.224004e+003, 4.855799e+002
1.224486e+003, 4.850633e+002
1.224968e+003, 4.846063e+002
1.225450e+003, 4.847013e+002
1.225932e+003, 4.848829e+002
1.226414e+003, 4.850116e+002
1.226896e+003, 4.849980e+002
1.227379e+003, 4.843416e+002
1.227861e+003, 4.832330e+002
1.228343e+003, 4.827458e+002
1.228825e+003, 4.832117e+002
1.229307e+003, 4.836614e+002
1.229789e+003, 4.833574e+002
1.230271e+003, 4.831231e+002
1.230753e+003, 4.834398e+002
1.231236e+003, 4.840863e+002
1.231718e+003, 4.843001e+002
1.232200e+003, 4.841802e+002
1.232682e+003, 4.841334e+002
1.233164e+003, 4.842817e+002
1.233646e+003, 4.844076e+002
1.234128e+003, 4.842290e+002
1.234610e+003, 4.842446e+002
1.235093e+003, 4.848839e+002
1.235575e+003, 4.857622e+002
1.236057e+003, 4.854131e+002
1.236539e+003, 4.842167e+002
1.237021e+003, 4.833676e+002
1.237503e+003, 4.831476e+002
1.237985e+003, 4.835347e+002
1.238467e+003, 4.853734e+002
1.238949e+003, 4.867627e+002
1.239432e+003, 4.867410e+002
1.239914e+003, 4.857487e+002
1.240396e+003, 4.848177e+002
1.240878e+003, 4.840573e+002
1.241360e+003, 4.838276e+002
1.241842e+003, 4.843266e+002
1.242324e+003, 4.850878e+002
1.242806e+003, 4.864803e+002
1.243288e+003, 4.872884e+002
1.243771e+003, 4.865760e+002
1.244253e+003, 4.851504e+002
1.244735e+003, 4.851365e+002
1.245217e+003, 4.860587e+002
1.245699e+003, 4.868615e+002
1.246181e+003, 4.874910e+002
1.246663e+003, 4.870996e+002
1.247145e+003, 4.848063e+002
1.247628e+003, 4.833964e+002
1.248110e+003, 4.849274e+002
1.248592e+003, 4.877650e+002
1.249074e+003, 4.884433e+002
1.249556e+003, 4.877827e+002
1.250038e+003, 4.874211e+002
1.250520e+003, 4.880268e+002
1.251002e+003, 4.882396e+002
1.251484e+003, 4.878988e+002
1.251967e+003, 4.874845e+002
1.252449e+003, 4.871537e+002
1.252931e+003, 4.870439e+002
1.253413e+003, 4.875625e+002
1.253895e+003, 4.883947e+002
1.254377e+003, 4.889440e+002
1.254859e+003, 4.888524e+002
1.255341e+003, 4.892823e+002
1.255823e+003, 4.904204e+002
1.256306e+003, 4.911582e+002
1.256788e+003, 4.904794e+002
1.257270e+003, 4.894811e+002
1.257752e+003, 4.897488e+002
1.258234e+003, 4.905108e+002
1.258716e+003, 4.904215e+002
1.259198e+003, 4.890356e+002
1.259680e+003, 4.883405e+002
1.260163e+003, 4.883878e+002
1.260645e+003, 4.886997e+002
1.261127e+003, 4.892819e+002
1.261609e+003, 4.896751e+002
1.262091e+003, 4.891947e+002
1.262573e+003, 4.884102e+002
1.263055e+003, 4.881332e+002
1.263537e+003, 4.884642e+002
1.264020e+003, 4.886099e+002
1.264502e+003, 4.885704e+002
1.264984e+003, 4.885921e+002
1.265466e+003, 4.888779e+002
1.265948e+003, 4.891810e+002
1.266430e+003, 4.894596e+002
1.266912e+003, 4.895633e+002
1.267394e+003, 4.892621e+002
1.267876e+003, 4.885482e+002
1.268359e+003, 4.881104e+002
1.268841e+003, 4.879677e+002
1.269323e+003, 4.883068e+002
1.269805e+003, 4.897931e+002
1.270287e+003, 4.910306e+002
1.270769e+003, 4.913149e+002
1.271251e+003, 4.911395e+002
1.271733e+003, 4.907284e+002
1.272215e+003, 4.901557e+002
1.272698e+003, 4.900760e+002
1.273180e+003, 4.904120e+002
1.273662e+003, 4.907969e+002
1.274144e+003, 4.914574e+002
1.274626e+003, 4.915192e+002
1.275108e+003, 4.903349e+002
1.275590e+003, 4.892575e+002
1.276072e+003, 4.896298e+002
1.276555e+003, 4.909095e+002
1.277037e+003, 4.911438e+002
1.277519e+003, 4.906806e+002
1.278001e+003, 4.905571e+002
1.278483e+003, 4.917411e+002
1.278965e+003, 4.923119e+002
1.279447e+003, 4.920152e+002
1.279929e+003, 4.914428e+002
1.280411e+003, 4.907523e+002
1.280894e+003, 4.902643e+002
1.281376e+003, 4.910212e+002
1.281858e+003, 4.923802e+002
1.282340e+003, 4.928558e+002
1.282822e+003, 4.913751e+002
1.283304e+003, 4.905802e+002
1.283786e+003, 4.905146e+002
1.284268e+003, 4.909406e+002
1.284750e+003, 4.919140e+002
1.285233e+003, 4.931131e+002
1.285715e+003, 4.945632e+002
1.286197e+003, 4.958099e+002
1.286679e+003, 4.958654e+002
1.287161e+003, 4.941577e+002
1.287643e+003, 4.938706e+002
1.288125e+003, 4.950561e+002
1.288607e+003, 4.962114e+002
1.289090e+003, 4.963242e+002
1.289572e+003, 4.961277e+002
1.290054e+003, 4.961382e+002
1.290536e+003, 4.961085e+002
1.291018e+003, 4.956219e+002
1.291500e+003, 4.946342e+002
1.291982e+003, 4.947898e+002
1.292464e+003, 4.959066e+002
1.292947e+003, 4.963199e+002
1.293429e+003, 4.943497e+002
1.293911e+003, 4.926221e+002
1.294393e+003, 4.924460e+002
1.294875e+003, 4.928689e+002
1.295357e+003, 4.933562e+002
1.295839e+003, 4.938616e+002
1.296321e+003, 4.941587e+002
1.296803e+003, 4.943091e+002
1.297286e+003, 4.944953e+002
1.297768e+003, 4.950953e+002
1.298250e+003, 4.951503e+002
1.298732e+003, 4.941873e+002
1.299214e+003, 4.934048e+002
1.299696e+003, 4.937726e+002
1.300178e+003, 4.947657e+002
1.300660e+003, 4.955917e+002
##END=



