##NAMES=Raguinite
##RRUFFID=R130617
##IDEAL CHEMISTRY=TlFeS_2_
##LOCALITY=Allchar, Roszdan, Republic of Macedonia
##OWNER=RRUFF
##SOURCE=Mark N. Feinglos
##DESCRIPTION=Black granular crystals, associated with dolomite, realgar, and lorandite.
##STATUS=The identification of this mineral has been confirmed only by single crystal X-ray diffraction.
##URL=rruff.info/R130617
8.806445e+001, 6.311437e+002
8.854657e+001, 6.183370e+002
8.902869e+001, 6.139172e+002
8.951080e+001, 6.220914e+002
8.999292e+001, 6.367463e+002
9.047504e+001, 6.522106e+002
9.095715e+001, 6.672881e+002
9.143927e+001, 6.821200e+002
9.192139e+001, 6.970410e+002
9.240350e+001, 7.120009e+002
9.288562e+001, 7.268529e+002
9.336774e+001, 7.369026e+002
9.384985e+001, 7.373126e+002
9.433197e+001, 7.276667e+002
9.481409e+001, 7.176375e+002
9.529620e+001, 7.057584e+002
9.577832e+001, 6.949756e+002
9.626044e+001, 6.857502e+002
9.674255e+001, 6.778132e+002
9.722467e+001, 6.706808e+002
9.770679e+001, 6.640764e+002
9.818890e+001, 6.585009e+002
9.867102e+001, 6.544407e+002
9.915314e+001, 6.508585e+002
9.963525e+001, 6.467809e+002
1.001174e+002, 6.417223e+002
1.005995e+002, 6.360450e+002
1.010816e+002, 6.311130e+002
1.015637e+002, 6.269089e+002
1.020458e+002, 6.234050e+002
1.025280e+002, 6.207031e+002
1.030101e+002, 6.185123e+002
1.034922e+002, 6.163679e+002
1.039743e+002, 6.138977e+002
1.044564e+002, 6.110767e+002
1.049385e+002, 6.092723e+002
1.054207e+002, 6.093503e+002
1.059028e+002, 6.093680e+002
1.063849e+002, 6.082938e+002
1.068670e+002, 6.060873e+002
1.073491e+002, 6.032952e+002
1.078312e+002, 6.001500e+002
1.083134e+002, 5.966987e+002
1.087955e+002, 5.938942e+002
1.092776e+002, 5.919451e+002
1.097597e+002, 5.906725e+002
1.102418e+002, 5.899922e+002
1.107239e+002, 5.901559e+002
1.112061e+002, 5.902823e+002
1.116882e+002, 5.893068e+002
1.121703e+002, 5.874888e+002
1.126524e+002, 5.860179e+002
1.131345e+002, 5.859048e+002
1.136166e+002, 5.870446e+002
1.140988e+002, 5.876601e+002
1.145809e+002, 5.872785e+002
1.150630e+002, 5.864631e+002
1.155451e+002, 5.854979e+002
1.160272e+002, 5.843986e+002
1.165093e+002, 5.830618e+002
1.169915e+002, 5.812720e+002
1.174736e+002, 5.787504e+002
1.179557e+002, 5.764926e+002
1.184378e+002, 5.743671e+002
1.189199e+002, 5.725756e+002
1.194020e+002, 5.713192e+002
1.198842e+002, 5.706465e+002
1.203663e+002, 5.703907e+002
1.208484e+002, 5.701752e+002
1.213305e+002, 5.699120e+002
1.218126e+002, 5.697944e+002
1.222947e+002, 5.702715e+002
1.227769e+002, 5.707898e+002
1.232590e+002, 5.705347e+002
1.237411e+002, 5.690078e+002
1.242232e+002, 5.665602e+002
1.247053e+002, 5.648014e+002
1.251874e+002, 5.642313e+002
1.256696e+002, 5.636467e+002
1.261517e+002, 5.621390e+002
1.266338e+002, 5.600580e+002
1.271159e+002, 5.589309e+002
1.275980e+002, 5.602264e+002
1.280801e+002, 5.631430e+002
1.285623e+002, 5.647415e+002
1.290444e+002, 5.638830e+002
1.295265e+002, 5.624017e+002
1.300086e+002, 5.621433e+002
1.304907e+002, 5.632981e+002
1.309728e+002, 5.647408e+002
1.314550e+002, 5.660125e+002
1.319371e+002, 5.670818e+002
1.324192e+002, 5.678538e+002
1.329013e+002, 5.684415e+002
1.333834e+002, 5.686833e+002
1.338655e+002, 5.679415e+002
1.343477e+002, 5.653010e+002
1.348298e+002, 5.630103e+002
1.353119e+002, 5.619841e+002
1.357940e+002, 5.619357e+002
1.362761e+002, 5.623058e+002
1.367582e+002, 5.626270e+002
1.372404e+002, 5.628729e+002
1.377225e+002, 5.639406e+002
1.382046e+002, 5.661940e+002
1.386867e+002, 5.689976e+002
1.391688e+002, 5.726758e+002
1.396509e+002, 5.768858e+002
1.401331e+002, 5.808139e+002
1.406152e+002, 5.836773e+002
1.410973e+002, 5.853141e+002
1.415794e+002, 5.861876e+002
1.420615e+002, 5.871033e+002
1.425436e+002, 5.868887e+002
1.430258e+002, 5.843965e+002
1.435079e+002, 5.795950e+002
1.439900e+002, 5.737647e+002
1.444721e+002, 5.684658e+002
1.449542e+002, 5.634858e+002
1.454363e+002, 5.599578e+002
1.459185e+002, 5.588105e+002
1.464006e+002, 5.587850e+002
1.468827e+002, 5.584424e+002
1.473648e+002, 5.573454e+002
1.478469e+002, 5.559561e+002
1.483290e+002, 5.549451e+002
1.488112e+002, 5.542049e+002
1.492933e+002, 5.539724e+002
1.497754e+002, 5.549134e+002
1.502575e+002, 5.565152e+002
1.507396e+002, 5.571808e+002
1.512217e+002, 5.560286e+002
1.517039e+002, 5.541773e+002
1.521860e+002, 5.531308e+002
1.526681e+002, 5.529698e+002
1.531502e+002, 5.529462e+002
1.536323e+002, 5.524440e+002
1.541144e+002, 5.514492e+002
1.545966e+002, 5.505562e+002
1.550787e+002, 5.504407e+002
1.555608e+002, 5.501638e+002
1.560429e+002, 5.488312e+002
1.565250e+002, 5.462227e+002
1.570071e+002, 5.433711e+002
1.574893e+002, 5.416028e+002
1.579714e+002, 5.409441e+002
1.584535e+002, 5.414336e+002
1.589356e+002, 5.431387e+002
1.594177e+002, 5.457571e+002
1.598998e+002, 5.491302e+002
1.603820e+002, 5.531798e+002
1.608641e+002, 5.578983e+002
1.613462e+002, 5.633729e+002
1.618283e+002, 5.710107e+002
1.623104e+002, 5.773514e+002
1.627925e+002, 5.819447e+002
1.632747e+002, 5.852325e+002
1.637568e+002, 5.877490e+002
1.642389e+002, 5.897470e+002
1.647210e+002, 5.911217e+002
1.652031e+002, 5.913370e+002
1.656852e+002, 5.891429e+002
1.661674e+002, 5.872145e+002
1.666495e+002, 5.857009e+002
1.671316e+002, 5.847573e+002
1.676137e+002, 5.846678e+002
1.680958e+002, 5.856526e+002
1.685779e+002, 5.875922e+002
1.690601e+002, 5.896954e+002
1.695422e+002, 5.925068e+002
1.700243e+002, 5.949090e+002
1.705064e+002, 5.963771e+002
1.709885e+002, 5.970233e+002
1.714706e+002, 5.972805e+002
1.719528e+002, 5.972391e+002
1.724349e+002, 5.970551e+002
1.729170e+002, 5.973181e+002
1.733991e+002, 5.981082e+002
1.738812e+002, 5.992673e+002
1.743633e+002, 6.005369e+002
1.748455e+002, 6.019072e+002
1.753276e+002, 6.039041e+002
1.758097e+002, 6.064474e+002
1.762918e+002, 6.100237e+002
1.767739e+002, 6.155632e+002
1.772560e+002, 6.233582e+002
1.777382e+002, 6.331423e+002
1.782203e+002, 6.446088e+002
1.787024e+002, 6.578198e+002
1.791845e+002, 6.724614e+002
1.796666e+002, 6.902030e+002
1.801487e+002, 7.087023e+002
1.806309e+002, 7.251754e+002
1.811130e+002, 7.395444e+002
1.815951e+002, 7.505555e+002
1.820772e+002, 7.545818e+002
1.825593e+002, 7.491134e+002
1.830414e+002, 7.399523e+002
1.835236e+002, 7.276177e+002
1.840057e+002, 7.139265e+002
1.844878e+002, 7.012888e+002
1.849699e+002, 6.910107e+002
1.854520e+002, 6.829896e+002
1.859341e+002, 6.765773e+002
1.864163e+002, 6.718484e+002
1.868984e+002, 6.689899e+002
1.873805e+002, 6.682609e+002
1.878626e+002, 6.693268e+002
1.883447e+002, 6.718194e+002
1.888268e+002, 6.756830e+002
1.893090e+002, 6.808359e+002
1.897911e+002, 6.849080e+002
1.902732e+002, 6.904186e+002
1.907553e+002, 6.923473e+002
1.912374e+002, 6.886343e+002
1.917195e+002, 6.801178e+002
1.922017e+002, 6.686308e+002
1.926838e+002, 6.553848e+002
1.931659e+002, 6.401765e+002
1.936480e+002, 6.255550e+002
1.941301e+002, 6.103813e+002
1.946122e+002, 5.966445e+002
1.950944e+002, 5.848516e+002
1.955765e+002, 5.751790e+002
1.960586e+002, 5.679281e+002
1.965407e+002, 5.636508e+002
1.970228e+002, 5.625461e+002
1.975049e+002, 5.615945e+002
1.979871e+002, 5.604488e+002
1.984692e+002, 5.596971e+002
1.989513e+002, 5.597715e+002
1.994334e+002, 5.606525e+002
1.999155e+002, 5.620079e+002
2.003976e+002, 5.638370e+002
2.008798e+002, 5.660146e+002
2.013619e+002, 5.673412e+002
2.018440e+002, 5.673192e+002
2.023261e+002, 5.667123e+002
2.028082e+002, 5.658736e+002
2.032903e+002, 5.647959e+002
2.037725e+002, 5.642896e+002
2.042546e+002, 5.651965e+002
2.047367e+002, 5.672292e+002
2.052188e+002, 5.696008e+002
2.057009e+002, 5.719778e+002
2.061830e+002, 5.747161e+002
2.066652e+002, 5.782599e+002
2.071473e+002, 5.826371e+002
2.076294e+002, 5.877516e+002
2.081115e+002, 5.936878e+002
2.085936e+002, 6.002773e+002
2.090757e+002, 6.074633e+002
2.095579e+002, 6.153234e+002
2.100400e+002, 6.236940e+002
2.105221e+002, 6.322299e+002
2.110042e+002, 6.406743e+002
2.114863e+002, 6.499278e+002
2.119685e+002, 6.604923e+002
2.124506e+002, 6.720509e+002
2.129327e+002, 6.841509e+002
2.134148e+002, 6.966005e+002
2.138969e+002, 7.095117e+002
2.143790e+002, 7.232862e+002
2.148612e+002, 7.389151e+002
2.153433e+002, 7.538241e+002
2.158254e+002, 7.679777e+002
2.163075e+002, 7.807574e+002
2.167896e+002, 7.916018e+002
2.172717e+002, 8.004063e+002
2.177539e+002, 8.068074e+002
2.182360e+002, 8.090968e+002
2.187181e+002, 8.075674e+002
2.192002e+002, 8.006260e+002
2.196823e+002, 7.862087e+002
2.201644e+002, 7.670228e+002
2.206466e+002, 7.463762e+002
2.211287e+002, 7.260927e+002
2.216108e+002, 7.062988e+002
2.220929e+002, 6.879330e+002
2.225750e+002, 6.701052e+002
2.230571e+002, 6.550533e+002
2.235393e+002, 6.438278e+002
2.240214e+002, 6.355537e+002
2.245035e+002, 6.290539e+002
2.249856e+002, 6.236682e+002
2.254677e+002, 6.194705e+002
2.259498e+002, 6.170858e+002
2.264320e+002, 6.177397e+002
2.269141e+002, 6.189579e+002
2.273962e+002, 6.213394e+002
2.278783e+002, 6.238846e+002
2.283604e+002, 6.250326e+002
2.288425e+002, 6.237936e+002
2.293247e+002, 6.206303e+002
2.298068e+002, 6.181861e+002
2.302889e+002, 6.175790e+002
2.307710e+002, 6.163713e+002
2.312531e+002, 6.138755e+002
2.317352e+002, 6.104525e+002
2.322174e+002, 6.068094e+002
2.326995e+002, 6.033616e+002
2.331816e+002, 5.998992e+002
2.336637e+002, 5.954094e+002
2.341458e+002, 5.897546e+002
2.346279e+002, 5.834651e+002
2.351101e+002, 5.762090e+002
2.355922e+002, 5.684203e+002
2.360743e+002, 5.609139e+002
2.365564e+002, 5.541248e+002
2.370385e+002, 5.478848e+002
2.375206e+002, 5.418550e+002
2.380028e+002, 5.358022e+002
2.384849e+002, 5.301940e+002
2.389670e+002, 5.250078e+002
2.394491e+002, 5.204062e+002
2.399312e+002, 5.167942e+002
2.404133e+002, 5.145438e+002
2.408955e+002, 5.131837e+002
2.413776e+002, 5.116070e+002
2.418597e+002, 5.096690e+002
2.423418e+002, 5.079147e+002
2.428239e+002, 5.065753e+002
2.433060e+002, 5.056025e+002
2.437882e+002, 5.048478e+002
2.442703e+002, 5.042455e+002
2.447524e+002, 5.038902e+002
2.452345e+002, 5.040283e+002
2.457166e+002, 5.047962e+002
2.461987e+002, 5.053247e+002
2.466809e+002, 5.049081e+002
2.471630e+002, 5.038568e+002
2.476451e+002, 5.031989e+002
2.481272e+002, 5.032403e+002
2.486093e+002, 5.037800e+002
2.490914e+002, 5.046529e+002
2.495736e+002, 5.058657e+002
2.500557e+002, 5.069413e+002
2.505378e+002, 5.074295e+002
2.510199e+002, 5.075070e+002
2.515020e+002, 5.079499e+002
2.519841e+002, 5.091156e+002
2.524663e+002, 5.103956e+002
2.529484e+002, 5.111633e+002
2.534305e+002, 5.114804e+002
2.539126e+002, 5.119183e+002
2.543947e+002, 5.127578e+002
2.548768e+002, 5.139865e+002
2.553590e+002, 5.155919e+002
2.558411e+002, 5.178801e+002
2.563232e+002, 5.201324e+002
2.568053e+002, 5.218418e+002
2.572874e+002, 5.231066e+002
2.577695e+002, 5.242776e+002
2.582516e+002, 5.253939e+002
2.587338e+002, 5.265429e+002
2.592159e+002, 5.281762e+002
2.596980e+002, 5.305010e+002
2.601801e+002, 5.330770e+002
2.606622e+002, 5.357494e+002
2.611443e+002, 5.384560e+002
2.616265e+002, 5.410603e+002
2.621086e+002, 5.434002e+002
2.625907e+002, 5.455616e+002
2.630728e+002, 5.478387e+002
2.635549e+002, 5.499964e+002
2.640370e+002, 5.527003e+002
2.645192e+002, 5.562152e+002
2.650013e+002, 5.603546e+002
2.654834e+002, 5.648466e+002
2.659655e+002, 5.696328e+002
2.664476e+002, 5.746234e+002
2.669297e+002, 5.796080e+002
2.674119e+002, 5.846722e+002
2.678940e+002, 5.895442e+002
2.683761e+002, 5.937715e+002
2.688582e+002, 5.978932e+002
2.693403e+002, 6.027285e+002
2.698224e+002, 6.087789e+002
2.703046e+002, 6.154587e+002
2.707867e+002, 6.210858e+002
2.712688e+002, 6.249667e+002
2.717509e+002, 6.289834e+002
2.722330e+002, 6.341379e+002
2.727151e+002, 6.393551e+002
2.731973e+002, 6.434611e+002
2.736794e+002, 6.459659e+002
2.741615e+002, 6.475905e+002
2.746436e+002, 6.499271e+002
2.751257e+002, 6.535394e+002
2.756078e+002, 6.567582e+002
2.760900e+002, 6.593030e+002
2.765721e+002, 6.614752e+002
2.770542e+002, 6.634427e+002
2.775363e+002, 6.652772e+002
2.780184e+002, 6.670303e+002
2.785005e+002, 6.689209e+002
2.789827e+002, 6.715652e+002
2.794648e+002, 6.728653e+002
2.799469e+002, 6.725201e+002
2.804290e+002, 6.712056e+002
2.809111e+002, 6.691254e+002
2.813932e+002, 6.664314e+002
2.818754e+002, 6.634506e+002
2.823575e+002, 6.606050e+002
2.828396e+002, 6.579832e+002
2.833217e+002, 6.552570e+002
2.838038e+002, 6.526848e+002
2.842859e+002, 6.498242e+002
2.847681e+002, 6.463951e+002
2.852502e+002, 6.424171e+002
2.857323e+002, 6.381238e+002
2.862144e+002, 6.337133e+002
2.866965e+002, 6.291305e+002
2.871786e+002, 6.247153e+002
2.876608e+002, 6.204777e+002
2.881429e+002, 6.163594e+002
2.886250e+002, 6.123622e+002
2.891071e+002, 6.084713e+002
2.895892e+002, 6.046607e+002
2.900714e+002, 6.009090e+002
2.905535e+002, 5.972351e+002
2.910356e+002, 5.933815e+002
2.915177e+002, 5.889343e+002
2.919998e+002, 5.847626e+002
2.924819e+002, 5.812346e+002
2.929641e+002, 5.781432e+002
2.934462e+002, 5.750521e+002
2.939283e+002, 5.716432e+002
2.944104e+002, 5.680181e+002
2.948925e+002, 5.647382e+002
2.953746e+002, 5.620941e+002
2.958568e+002, 5.594946e+002
2.963389e+002, 5.567151e+002
2.968210e+002, 5.539551e+002
2.973031e+002, 5.515177e+002
2.977852e+002, 5.495413e+002
2.982673e+002, 5.479045e+002
2.987495e+002, 5.462699e+002
2.992316e+002, 5.445220e+002
2.997137e+002, 5.429055e+002
3.001958e+002, 5.414233e+002
3.006779e+002, 5.400681e+002
3.011600e+002, 5.389060e+002
3.016422e+002, 5.379366e+002
3.021243e+002, 5.369740e+002
3.026064e+002, 5.356570e+002
3.030885e+002, 5.335170e+002
3.035706e+002, 5.318707e+002
3.040527e+002, 5.309023e+002
3.045349e+002, 5.302585e+002
3.050170e+002, 5.296567e+002
3.054991e+002, 5.290617e+002
3.059812e+002, 5.286827e+002
3.064633e+002, 5.288521e+002
3.069454e+002, 5.299192e+002
3.074276e+002, 5.302775e+002
3.079097e+002, 5.295408e+002
3.083918e+002, 5.285627e+002
3.088739e+002, 5.276058e+002
3.093560e+002, 5.268001e+002
3.098381e+002, 5.263761e+002
3.103203e+002, 5.266143e+002
3.108024e+002, 5.275961e+002
3.112845e+002, 5.279335e+002
3.117666e+002, 5.270428e+002
3.122487e+002, 5.262075e+002
3.127308e+002, 5.259233e+002
3.132130e+002, 5.260435e+002
3.136951e+002, 5.261672e+002
3.141772e+002, 5.260245e+002
3.146593e+002, 5.256797e+002
3.151414e+002, 5.255918e+002
3.156235e+002, 5.254897e+002
3.161057e+002, 5.259584e+002
3.165878e+002, 5.275049e+002
3.170699e+002, 5.295645e+002
3.175520e+002, 5.313862e+002
3.180341e+002, 5.326273e+002
3.185162e+002, 5.334935e+002
3.189984e+002, 5.344894e+002
3.194805e+002, 5.354385e+002
3.199626e+002, 5.367977e+002
3.204447e+002, 5.388235e+002
3.209268e+002, 5.411154e+002
3.214089e+002, 5.433333e+002
3.218911e+002, 5.453843e+002
3.223732e+002, 5.473528e+002
3.228553e+002, 5.493705e+002
3.233374e+002, 5.513959e+002
3.238195e+002, 5.535737e+002
3.243016e+002, 5.562383e+002
3.247838e+002, 5.587632e+002
3.252659e+002, 5.605573e+002
3.257480e+002, 5.617164e+002
3.262301e+002, 5.628922e+002
3.267122e+002, 5.647721e+002
3.271943e+002, 5.674694e+002
3.276765e+002, 5.698437e+002
3.281586e+002, 5.717377e+002
3.286407e+002, 5.734961e+002
3.291228e+002, 5.749721e+002
3.296049e+002, 5.764092e+002
3.300870e+002, 5.783175e+002
3.305692e+002, 5.810762e+002
3.310513e+002, 5.845746e+002
3.315334e+002, 5.879025e+002
3.320155e+002, 5.903575e+002
3.324976e+002, 5.934896e+002
3.329797e+002, 5.975905e+002
3.334619e+002, 6.024817e+002
3.339440e+002, 6.080008e+002
3.344261e+002, 6.140884e+002
3.349082e+002, 6.205829e+002
3.353904e+002, 6.271682e+002
3.358725e+002, 6.336700e+002
3.363546e+002, 6.405356e+002
3.368367e+002, 6.485094e+002
3.373188e+002, 6.563878e+002
3.378009e+002, 6.630547e+002
3.382831e+002, 6.683258e+002
3.387652e+002, 6.729758e+002
3.392473e+002, 6.780908e+002
3.397294e+002, 6.842575e+002
3.402115e+002, 6.890502e+002
3.406936e+002, 6.927989e+002
3.411758e+002, 6.951133e+002
3.416579e+002, 6.954822e+002
3.421400e+002, 6.941482e+002
3.426221e+002, 6.918098e+002
3.431042e+002, 6.889600e+002
3.435863e+002, 6.855972e+002
3.440685e+002, 6.822800e+002
3.445506e+002, 6.783173e+002
3.450327e+002, 6.751685e+002
3.455148e+002, 6.728319e+002
3.459969e+002, 6.716071e+002
3.464790e+002, 6.718449e+002
3.469612e+002, 6.737177e+002
3.474433e+002, 6.772321e+002
3.479254e+002, 6.825599e+002
3.484075e+002, 6.902038e+002
3.488896e+002, 6.990020e+002
3.493717e+002, 7.091138e+002
3.498539e+002, 7.198676e+002
3.503360e+002, 7.312195e+002
3.508181e+002, 7.429778e+002
3.513002e+002, 7.542051e+002
3.517823e+002, 7.640680e+002
3.522644e+002, 7.735807e+002
3.527466e+002, 7.782315e+002
3.532287e+002, 7.759616e+002
3.537108e+002, 7.703983e+002
3.541929e+002, 7.627820e+002
3.546750e+002, 7.534191e+002
3.551571e+002, 7.423118e+002
3.556393e+002, 7.286361e+002
3.561214e+002, 7.123758e+002
3.566035e+002, 6.990150e+002
3.570856e+002, 6.902284e+002
3.575677e+002, 6.827013e+002
3.580498e+002, 6.756780e+002
3.585320e+002, 6.689527e+002
3.590141e+002, 6.622752e+002
3.594962e+002, 6.555431e+002
3.599783e+002, 6.487774e+002
3.604604e+002, 6.421533e+002
3.609425e+002, 6.357458e+002
3.614247e+002, 6.292422e+002
3.619068e+002, 6.219037e+002
3.623889e+002, 6.147722e+002
3.628710e+002, 6.090041e+002
3.633531e+002, 6.049359e+002
3.638352e+002, 6.015635e+002
3.643174e+002, 5.975004e+002
3.647995e+002, 5.925817e+002
3.652816e+002, 5.886000e+002
3.657637e+002, 5.862866e+002
3.662458e+002, 5.847008e+002
3.667279e+002, 5.834698e+002
3.672101e+002, 5.824846e+002
3.676922e+002, 5.813656e+002
3.681743e+002, 5.795559e+002
3.686564e+002, 5.773161e+002
3.691385e+002, 5.760309e+002
3.696206e+002, 5.763697e+002
3.701028e+002, 5.764346e+002
3.705849e+002, 5.744537e+002
3.710670e+002, 5.715085e+002
3.715491e+002, 5.696238e+002
3.720312e+002, 5.699993e+002
3.725133e+002, 5.712600e+002
3.729955e+002, 5.713598e+002
3.734776e+002, 5.701650e+002
3.739597e+002, 5.691094e+002
3.744418e+002, 5.690015e+002
3.749239e+002, 5.692256e+002
3.754060e+002, 5.689875e+002
3.758882e+002, 5.681454e+002
3.763703e+002, 5.671740e+002
3.768524e+002, 5.663885e+002
3.773345e+002, 5.657449e+002
3.778166e+002, 5.650107e+002
3.782987e+002, 5.640302e+002
3.787809e+002, 5.631425e+002
3.792630e+002, 5.628065e+002
3.797451e+002, 5.629494e+002
3.802272e+002, 5.630792e+002
3.807093e+002, 5.632953e+002
3.811914e+002, 5.632927e+002
3.816736e+002, 5.623998e+002
3.821557e+002, 5.605302e+002
3.826378e+002, 5.589102e+002
3.831199e+002, 5.586166e+002
3.836020e+002, 5.593404e+002
3.840841e+002, 5.595114e+002
3.845663e+002, 5.586077e+002
3.850484e+002, 5.576352e+002
3.855305e+002, 5.571410e+002
3.860126e+002, 5.570469e+002
3.864947e+002, 5.571773e+002
3.869768e+002, 5.575498e+002
3.874590e+002, 5.579236e+002
3.879411e+002, 5.576628e+002
3.884232e+002, 5.564642e+002
3.889053e+002, 5.556492e+002
3.893874e+002, 5.559010e+002
3.898695e+002, 5.564698e+002
3.903517e+002, 5.563914e+002
3.908338e+002, 5.555094e+002
3.913159e+002, 5.545550e+002
3.917980e+002, 5.543578e+002
3.922801e+002, 5.550746e+002
3.927622e+002, 5.550349e+002
3.932444e+002, 5.535732e+002
3.937265e+002, 5.520592e+002
3.942086e+002, 5.514232e+002
3.946907e+002, 5.513324e+002
3.951728e+002, 5.508039e+002
3.956549e+002, 5.492488e+002
3.961371e+002, 5.468906e+002
3.966192e+002, 5.446710e+002
3.971013e+002, 5.423332e+002
3.975834e+002, 5.404728e+002
3.980655e+002, 5.395214e+002
3.985476e+002, 5.388793e+002
3.990298e+002, 5.379767e+002
3.995119e+002, 5.366564e+002
3.999940e+002, 5.350894e+002
4.004761e+002, 5.335008e+002
4.009582e+002, 5.319178e+002
4.014403e+002, 5.302191e+002
4.019225e+002, 5.285043e+002
4.024046e+002, 5.266042e+002
4.028867e+002, 5.242079e+002
4.033688e+002, 5.215500e+002
4.038509e+002, 5.191902e+002
4.043330e+002, 5.175573e+002
4.048152e+002, 5.164850e+002
4.052973e+002, 5.150038e+002
4.057794e+002, 5.126667e+002
4.062615e+002, 5.105796e+002
4.067436e+002, 5.090563e+002
4.072257e+002, 5.077973e+002
4.077079e+002, 5.065855e+002
4.081900e+002, 5.053359e+002
4.086721e+002, 5.039348e+002
4.091542e+002, 5.021159e+002
4.096363e+002, 4.997269e+002
4.101184e+002, 4.976975e+002
4.106006e+002, 4.962784e+002
4.110827e+002, 4.951245e+002
4.115648e+002, 4.942838e+002
4.120469e+002, 4.936035e+002
4.125290e+002, 4.926512e+002
4.130111e+002, 4.910126e+002
4.134933e+002, 4.889148e+002
4.139754e+002, 4.870656e+002
4.144575e+002, 4.854843e+002
4.149396e+002, 4.841163e+002
4.154217e+002, 4.830687e+002
4.159038e+002, 4.821750e+002
4.163860e+002, 4.812374e+002
4.168681e+002, 4.801689e+002
4.173502e+002, 4.791780e+002
4.178323e+002, 4.784826e+002
4.183144e+002, 4.780598e+002
4.187965e+002, 4.778099e+002
4.192787e+002, 4.779163e+002
4.197608e+002, 4.778720e+002
4.202429e+002, 4.769118e+002
4.207250e+002, 4.751294e+002
4.212071e+002, 4.737027e+002
4.216892e+002, 4.732574e+002
4.221714e+002, 4.732856e+002
4.226535e+002, 4.732222e+002
4.231356e+002, 4.730255e+002
4.236177e+002, 4.725328e+002
4.240998e+002, 4.715349e+002
4.245819e+002, 4.701519e+002
4.250641e+002, 4.689650e+002
4.255462e+002, 4.677770e+002
4.260283e+002, 4.670192e+002
4.265104e+002, 4.673136e+002
4.269925e+002, 4.681124e+002
4.274746e+002, 4.682247e+002
4.279568e+002, 4.671962e+002
4.284389e+002, 4.658271e+002
4.289210e+002, 4.653500e+002
4.294031e+002, 4.662423e+002
4.298852e+002, 4.667309e+002
4.303673e+002, 4.667850e+002
4.308495e+002, 4.664633e+002
4.313316e+002, 4.654963e+002
4.318137e+002, 4.641089e+002
4.322958e+002, 4.630588e+002
4.327779e+002, 4.629189e+002
4.332600e+002, 4.635770e+002
4.337422e+002, 4.641259e+002
4.342243e+002, 4.649138e+002
4.347064e+002, 4.651492e+002
4.351885e+002, 4.643052e+002
4.356706e+002, 4.630526e+002
4.361527e+002, 4.620159e+002
4.366349e+002, 4.614125e+002
4.371170e+002, 4.612179e+002
4.375991e+002, 4.614561e+002
4.380812e+002, 4.622521e+002
4.385633e+002, 4.630163e+002
4.390454e+002, 4.641183e+002
4.395276e+002, 4.648253e+002
4.400097e+002, 4.647234e+002
4.404918e+002, 4.639845e+002
4.409739e+002, 4.629289e+002
4.414560e+002, 4.615661e+002
4.419381e+002, 4.602634e+002
4.424203e+002, 4.603525e+002
4.429024e+002, 4.626679e+002
4.433845e+002, 4.641473e+002
4.438666e+002, 4.628866e+002
4.443487e+002, 4.609982e+002
4.448308e+002, 4.602321e+002
4.453130e+002, 4.608906e+002
4.457951e+002, 4.618675e+002
4.462772e+002, 4.623020e+002
4.467593e+002, 4.622759e+002
4.472414e+002, 4.621713e+002
4.477235e+002, 4.619643e+002
4.482057e+002, 4.618189e+002
4.486878e+002, 4.619162e+002
4.491699e+002, 4.621707e+002
4.496520e+002, 4.623937e+002
4.501341e+002, 4.625939e+002
4.506162e+002, 4.626913e+002
4.510984e+002, 4.624372e+002
4.515805e+002, 4.619276e+002
4.520626e+002, 4.618702e+002
4.525447e+002, 4.627720e+002
4.530268e+002, 4.639588e+002
4.535089e+002, 4.639306e+002
4.539911e+002, 4.623620e+002
4.544732e+002, 4.613840e+002
4.549553e+002, 4.619610e+002
4.554374e+002, 4.630728e+002
4.559195e+002, 4.636444e+002
4.564016e+002, 4.635826e+002
4.568838e+002, 4.634057e+002
4.573659e+002, 4.635340e+002
4.578480e+002, 4.639427e+002
4.583301e+002, 4.641772e+002
4.588122e+002, 4.640646e+002
4.592943e+002, 4.640132e+002
4.597765e+002, 4.641769e+002
4.602586e+002, 4.644405e+002
4.607407e+002, 4.646767e+002
4.612228e+002, 4.648361e+002
4.617049e+002, 4.648970e+002
4.621870e+002, 4.648023e+002
4.626692e+002, 4.644663e+002
4.631513e+002, 4.642608e+002
4.636334e+002, 4.640855e+002
4.641155e+002, 4.641333e+002
4.645976e+002, 4.647847e+002
4.650797e+002, 4.657207e+002
4.655619e+002, 4.662266e+002
4.660440e+002, 4.657977e+002
4.665261e+002, 4.648187e+002
4.670082e+002, 4.643603e+002
4.674903e+002, 4.645549e+002
4.679724e+002, 4.649105e+002
4.684546e+002, 4.654106e+002
4.689367e+002, 4.659565e+002
4.694188e+002, 4.665482e+002
4.699009e+002, 4.671659e+002
4.703830e+002, 4.676035e+002
4.708651e+002, 4.675707e+002
4.713473e+002, 4.672139e+002
4.718294e+002, 4.671077e+002
4.723115e+002, 4.673631e+002
4.727936e+002, 4.676100e+002
4.732757e+002, 4.675834e+002
4.737578e+002, 4.673807e+002
4.742400e+002, 4.671604e+002
4.747221e+002, 4.668614e+002
4.752042e+002, 4.666819e+002
4.756863e+002, 4.667623e+002
4.761684e+002, 4.670714e+002
4.766505e+002, 4.676298e+002
4.771327e+002, 4.685376e+002
4.776148e+002, 4.693036e+002
4.780969e+002, 4.692119e+002
4.785790e+002, 4.681083e+002
4.790611e+002, 4.672592e+002
4.795432e+002, 4.667792e+002
4.800254e+002, 4.665319e+002
4.805075e+002, 4.665670e+002
4.809896e+002, 4.667753e+002
4.814717e+002, 4.668526e+002
4.819538e+002, 4.666166e+002
4.824359e+002, 4.662134e+002
4.829181e+002, 4.660651e+002
4.834002e+002, 4.664883e+002
4.838823e+002, 4.667071e+002
4.843644e+002, 4.665489e+002
4.848465e+002, 4.663164e+002
4.853286e+002, 4.662688e+002
4.858108e+002, 4.663863e+002
4.862929e+002, 4.664372e+002
4.867750e+002, 4.661994e+002
4.872571e+002, 4.657137e+002
4.877392e+002, 4.653405e+002
4.882213e+002, 4.650898e+002
4.887035e+002, 4.649395e+002
4.891856e+002, 4.650801e+002
4.896677e+002, 4.651976e+002
4.901498e+002, 4.648454e+002
4.906319e+002, 4.639149e+002
4.911140e+002, 4.630390e+002
4.915962e+002, 4.629633e+002
4.920783e+002, 4.635800e+002
4.925604e+002, 4.640323e+002
4.930425e+002, 4.642701e+002
4.935246e+002, 4.642580e+002
4.940067e+002, 4.638491e+002
4.944889e+002, 4.631780e+002
4.949710e+002, 4.625086e+002
4.954531e+002, 4.617379e+002
4.959352e+002, 4.611774e+002
4.964173e+002, 4.612295e+002
4.968994e+002, 4.617338e+002
4.973816e+002, 4.621249e+002
4.978637e+002, 4.622336e+002
4.983458e+002, 4.620938e+002
4.988279e+002, 4.617020e+002
4.993100e+002, 4.609921e+002
4.997921e+002, 4.603596e+002
5.002743e+002, 4.596522e+002
5.007564e+002, 4.591808e+002
5.012385e+002, 4.593819e+002
5.017206e+002, 4.600229e+002
5.022027e+002, 4.603939e+002
5.026848e+002, 4.600710e+002
5.031670e+002, 4.593197e+002
5.036491e+002, 4.589328e+002
5.041312e+002, 4.591956e+002
5.046133e+002, 4.593716e+002
5.050954e+002, 4.591580e+002
5.055775e+002, 4.590786e+002
5.060597e+002, 4.598228e+002
5.065418e+002, 4.611454e+002
5.070239e+002, 4.619725e+002
5.075060e+002, 4.613344e+002
5.079881e+002, 4.595637e+002
5.084702e+002, 4.581996e+002
5.089524e+002, 4.572216e+002
5.094345e+002, 4.567117e+002
5.099166e+002, 4.569791e+002
5.103987e+002, 4.575612e+002
5.108808e+002, 4.581380e+002
5.113629e+002, 4.586601e+002
5.118451e+002, 4.590006e+002
5.123271e+002, 4.590330e+002
5.128093e+002, 4.588097e+002
5.132914e+002, 4.584178e+002
5.137735e+002, 4.578192e+002
5.142556e+002, 4.572920e+002
5.147377e+002, 4.569722e+002
5.152198e+002, 4.568970e+002
5.157020e+002, 4.571331e+002
5.161841e+002, 4.580171e+002
5.166662e+002, 4.587254e+002
5.171483e+002, 4.587994e+002
5.176304e+002, 4.584860e+002
5.181125e+002, 4.581801e+002
5.185947e+002, 4.579786e+002
5.190768e+002, 4.577638e+002
5.195589e+002, 4.573895e+002
5.200410e+002, 4.568222e+002
5.205231e+002, 4.564004e+002
5.210052e+002, 4.561021e+002
5.214874e+002, 4.559475e+002
5.219695e+002, 4.559016e+002
5.224516e+002, 4.560172e+002
5.229337e+002, 4.565391e+002
5.234158e+002, 4.575243e+002
5.238979e+002, 4.584092e+002
5.243801e+002, 4.581051e+002
5.248622e+002, 4.561937e+002
5.253443e+002, 4.553360e+002
5.258264e+002, 4.565429e+002
5.263085e+002, 4.578184e+002
5.267906e+002, 4.583048e+002
5.272728e+002, 4.582377e+002
5.277549e+002, 4.581364e+002
5.282370e+002, 4.582523e+002
5.287191e+002, 4.583145e+002
5.292012e+002, 4.577249e+002
5.296833e+002, 4.565651e+002
5.301655e+002, 4.561939e+002
5.306476e+002, 4.573217e+002
5.311297e+002, 4.587214e+002
5.316118e+002, 4.588618e+002
5.320939e+002, 4.579355e+002
5.325760e+002, 4.572662e+002
5.330582e+002, 4.572638e+002
5.335403e+002, 4.574833e+002
5.340224e+002, 4.576215e+002
5.345045e+002, 4.576999e+002
5.349866e+002, 4.578338e+002
5.354688e+002, 4.580797e+002
5.359509e+002, 4.583666e+002
5.364330e+002, 4.585464e+002
5.369151e+002, 4.584868e+002
5.373972e+002, 4.586559e+002
5.378793e+002, 4.591856e+002
5.383615e+002, 4.598033e+002
5.388436e+002, 4.605566e+002
5.393257e+002, 4.612628e+002
5.398078e+002, 4.615256e+002
5.402899e+002, 4.610901e+002
5.407720e+002, 4.602594e+002
5.412542e+002, 4.597321e+002
5.417363e+002, 4.595894e+002
5.422184e+002, 4.594683e+002
5.427005e+002, 4.591494e+002
5.431826e+002, 4.589851e+002
5.436647e+002, 4.593237e+002
5.441469e+002, 4.600341e+002
5.446290e+002, 4.605964e+002
5.451111e+002, 4.607102e+002
5.455932e+002, 4.605553e+002
5.460753e+002, 4.602594e+002
5.465574e+002, 4.598394e+002
5.470396e+002, 4.598308e+002
5.475217e+002, 4.606201e+002
5.480038e+002, 4.616653e+002
5.484859e+002, 4.621113e+002
5.489680e+002, 4.619518e+002
5.494501e+002, 4.616262e+002
5.499323e+002, 4.608270e+002
5.504144e+002, 4.602040e+002
5.508965e+002, 4.604108e+002
5.513786e+002, 4.612805e+002
5.518607e+002, 4.622252e+002
5.523428e+002, 4.629565e+002
5.528250e+002, 4.634210e+002
5.533071e+002, 4.634532e+002
5.537892e+002, 4.626803e+002
5.542713e+002, 4.621484e+002
5.547534e+002, 4.619064e+002
5.552355e+002, 4.618291e+002
5.557177e+002, 4.618871e+002
5.561998e+002, 4.620506e+002
5.566819e+002, 4.622780e+002
5.571640e+002, 4.625518e+002
5.576461e+002, 4.628579e+002
5.581282e+002, 4.632028e+002
5.586104e+002, 4.636224e+002
5.590925e+002, 4.638303e+002
5.595746e+002, 4.634718e+002
5.600567e+002, 4.631705e+002
5.605388e+002, 4.635580e+002
5.610209e+002, 4.645399e+002
5.615031e+002, 4.654426e+002
5.619852e+002, 4.662449e+002
5.624673e+002, 4.666807e+002
5.629494e+002, 4.661761e+002
5.634315e+002, 4.649541e+002
5.639136e+002, 4.640584e+002
5.643958e+002, 4.639014e+002
5.648779e+002, 4.643284e+002
5.653600e+002, 4.651663e+002
5.658421e+002, 4.667544e+002
5.663242e+002, 4.677139e+002
5.668063e+002, 4.674455e+002
5.672885e+002, 4.671299e+002
5.677706e+002, 4.674715e+002
5.682527e+002, 4.682794e+002
5.687348e+002, 4.691088e+002
5.692169e+002, 4.697530e+002
5.696990e+002, 4.701492e+002
5.701812e+002, 4.700136e+002
5.706633e+002, 4.690379e+002
5.711454e+002, 4.688049e+002
5.716275e+002, 4.701284e+002
5.721096e+002, 4.715207e+002
5.725917e+002, 4.721377e+002
5.730739e+002, 4.722554e+002
5.735560e+002, 4.725929e+002
5.740381e+002, 4.735793e+002
5.745202e+002, 4.746188e+002
5.750023e+002, 4.747854e+002
5.754844e+002, 4.743079e+002
5.759666e+002, 4.746446e+002
5.764487e+002, 4.764162e+002
5.769308e+002, 4.782178e+002
5.774129e+002, 4.784022e+002
5.778950e+002, 4.769198e+002
5.783771e+002, 4.760674e+002
5.788593e+002, 4.760710e+002
5.793414e+002, 4.765149e+002
5.798235e+002, 4.775974e+002
5.803056e+002, 4.788797e+002
5.807877e+002, 4.795305e+002
5.812698e+002, 4.793479e+002
5.817520e+002, 4.791112e+002
5.822341e+002, 4.799503e+002
5.827162e+002, 4.820932e+002
5.831984e+002, 4.831299e+002
5.836805e+002, 4.817103e+002
5.841626e+002, 4.808560e+002
5.846447e+002, 4.819639e+002
5.851268e+002, 4.838247e+002
5.856089e+002, 4.849420e+002
5.860911e+002, 4.849122e+002
5.865732e+002, 4.844787e+002
5.870553e+002, 4.841664e+002
5.875374e+002, 4.839998e+002
5.880195e+002, 4.840986e+002
5.885016e+002, 4.844964e+002
5.889838e+002, 4.850641e+002
5.894659e+002, 4.858948e+002
5.899480e+002, 4.867831e+002
5.904301e+002, 4.871435e+002
5.909122e+002, 4.867581e+002
5.913943e+002, 4.862986e+002
5.918765e+002, 4.859150e+002
5.923586e+002, 4.855922e+002
5.928407e+002, 4.852829e+002
5.933228e+002, 4.850050e+002
5.938049e+002, 4.848702e+002
5.942870e+002, 4.849771e+002
5.947692e+002, 4.852701e+002
5.952513e+002, 4.855233e+002
5.957334e+002, 4.860074e+002
5.962155e+002, 4.859405e+002
5.966976e+002, 4.846962e+002
5.971797e+002, 4.833905e+002
5.976619e+002, 4.828380e+002
5.981440e+002, 4.829581e+002
5.986261e+002, 4.831068e+002
5.991082e+002, 4.829175e+002
5.995903e+002, 4.824955e+002
6.000724e+002, 4.819541e+002
6.005546e+002, 4.812894e+002
6.010367e+002, 4.808125e+002
6.015188e+002, 4.806919e+002
6.020009e+002, 4.806845e+002
6.024830e+002, 4.804332e+002
6.029651e+002, 4.799418e+002
6.034473e+002, 4.796259e+002
6.039294e+002, 4.797567e+002
6.044115e+002, 4.798717e+002
6.048936e+002, 4.798873e+002
6.053757e+002, 4.796430e+002
6.058578e+002, 4.786483e+002
6.063400e+002, 4.767550e+002
6.068221e+002, 4.747708e+002
6.073042e+002, 4.739075e+002
6.077863e+002, 4.743829e+002
6.082684e+002, 4.745840e+002
6.087505e+002, 4.743500e+002
6.092327e+002, 4.740258e+002
6.097148e+002, 4.736914e+002
6.101969e+002, 4.733421e+002
6.106790e+002, 4.729530e+002
6.111611e+002, 4.725180e+002
6.116432e+002, 4.720900e+002
6.121254e+002, 4.717014e+002
6.126075e+002, 4.713543e+002
6.130896e+002, 4.710969e+002
6.135717e+002, 4.709509e+002
6.140538e+002, 4.707030e+002
6.145359e+002, 4.701601e+002
6.150181e+002, 4.694508e+002
6.155002e+002, 4.689725e+002
6.159823e+002, 4.688167e+002
6.164644e+002, 4.686383e+002
6.169465e+002, 4.682676e+002
6.174286e+002, 4.679181e+002
6.179108e+002, 4.678813e+002
6.183929e+002, 4.680575e+002
6.188750e+002, 4.680298e+002
6.193571e+002, 4.675142e+002
6.198392e+002, 4.667437e+002
6.203214e+002, 4.663637e+002
6.208035e+002, 4.665355e+002
6.212856e+002, 4.666115e+002
6.217677e+002, 4.665616e+002
6.222498e+002, 4.663625e+002
6.227319e+002, 4.658192e+002
6.232141e+002, 4.651225e+002
6.236962e+002, 4.647427e+002
6.241783e+002, 4.648987e+002
6.246604e+002, 4.653576e+002
6.251425e+002, 4.660587e+002
6.256246e+002, 4.668906e+002
6.261068e+002, 4.675494e+002
6.265889e+002, 4.680022e+002
6.270710e+002, 4.679615e+002
6.275531e+002, 4.669961e+002
6.280352e+002, 4.651717e+002
6.285173e+002, 4.639858e+002
6.289995e+002, 4.633747e+002
6.294816e+002, 4.633872e+002
6.299637e+002, 4.647928e+002
6.304458e+002, 4.663463e+002
6.309279e+002, 4.666452e+002
6.314100e+002, 4.656767e+002
6.318922e+002, 4.646317e+002
6.323743e+002, 4.645052e+002
6.328564e+002, 4.650459e+002
6.333385e+002, 4.652963e+002
6.338206e+002, 4.651475e+002
6.343027e+002, 4.651555e+002
6.347849e+002, 4.656638e+002
6.352670e+002, 4.662090e+002
6.357491e+002, 4.662106e+002
6.362312e+002, 4.657464e+002
6.367133e+002, 4.656311e+002
6.371954e+002, 4.665994e+002
6.376776e+002, 4.675810e+002
6.381597e+002, 4.675844e+002
6.386418e+002, 4.669318e+002
6.391239e+002, 4.664216e+002
6.396060e+002, 4.663192e+002
6.400881e+002, 4.664721e+002
6.405703e+002, 4.667907e+002
6.410524e+002, 4.673646e+002
6.415345e+002, 4.671020e+002
6.420166e+002, 4.646831e+002
6.424987e+002, 4.630027e+002
6.429808e+002, 4.630884e+002
6.434630e+002, 4.639276e+002
6.439451e+002, 4.646314e+002
6.444272e+002, 4.649771e+002
6.449093e+002, 4.649515e+002
6.453914e+002, 4.640797e+002
6.458735e+002, 4.629272e+002
6.463557e+002, 4.632020e+002
6.468378e+002, 4.649859e+002
6.473199e+002, 4.661836e+002
6.478020e+002, 4.657003e+002
6.482841e+002, 4.645214e+002
6.487662e+002, 4.642946e+002
6.492484e+002, 4.652403e+002
6.497305e+002, 4.658366e+002
6.502126e+002, 4.656686e+002
6.506947e+002, 4.654174e+002
6.511768e+002, 4.655139e+002
6.516589e+002, 4.657761e+002
6.521411e+002, 4.657990e+002
6.526232e+002, 4.654559e+002
6.531053e+002, 4.650692e+002
6.535874e+002, 4.651401e+002
6.540695e+002, 4.656771e+002
6.545516e+002, 4.657841e+002
6.550338e+002, 4.652488e+002
6.555159e+002, 4.647054e+002
6.559980e+002, 4.644381e+002
6.564801e+002, 4.643030e+002
6.569622e+002, 4.641240e+002
6.574443e+002, 4.638670e+002
6.579265e+002, 4.637590e+002
6.584086e+002, 4.640543e+002
6.588907e+002, 4.644439e+002
6.593728e+002, 4.645821e+002
6.598549e+002, 4.644945e+002
6.603370e+002, 4.643470e+002
6.608192e+002, 4.642070e+002
6.613013e+002, 4.641287e+002
6.617834e+002, 4.642410e+002
6.622655e+002, 4.646687e+002
6.627476e+002, 4.648185e+002
6.632297e+002, 4.640176e+002
6.637119e+002, 4.636887e+002
6.641940e+002, 4.649116e+002
6.646761e+002, 4.665919e+002
6.651582e+002, 4.671534e+002
6.656403e+002, 4.661800e+002
6.661224e+002, 4.649292e+002
6.666046e+002, 4.644531e+002
6.670867e+002, 4.644706e+002
6.675688e+002, 4.643062e+002
6.680509e+002, 4.639232e+002
6.685330e+002, 4.635577e+002
6.690151e+002, 4.632988e+002
6.694973e+002, 4.631701e+002
6.699794e+002, 4.632451e+002
6.704615e+002, 4.636531e+002
6.709436e+002, 4.639113e+002
6.714257e+002, 4.639592e+002
6.719078e+002, 4.639075e+002
6.723900e+002, 4.636530e+002
6.728721e+002, 4.633820e+002
6.733542e+002, 4.634467e+002
6.738363e+002, 4.639591e+002
6.743184e+002, 4.645605e+002
6.748005e+002, 4.648110e+002
6.752827e+002, 4.647440e+002
6.757648e+002, 4.647014e+002
6.762469e+002, 4.646995e+002
6.767290e+002, 4.646898e+002
6.772111e+002, 4.646657e+002
6.776932e+002, 4.646075e+002
6.781754e+002, 4.644664e+002
6.786575e+002, 4.642169e+002
6.791396e+002, 4.640337e+002
6.796217e+002, 4.637852e+002
6.801038e+002, 4.637719e+002
6.805859e+002, 4.645692e+002
6.810681e+002, 4.657453e+002
6.815502e+002, 4.662782e+002
6.820323e+002, 4.657769e+002
6.825144e+002, 4.647769e+002
6.829965e+002, 4.639891e+002
6.834786e+002, 4.634196e+002
6.839608e+002, 4.629672e+002
6.844429e+002, 4.625459e+002
6.849250e+002, 4.623993e+002
6.854071e+002, 4.627066e+002
6.858892e+002, 4.632936e+002
6.863713e+002, 4.641276e+002
6.868535e+002, 4.652284e+002
6.873356e+002, 4.659683e+002
6.878177e+002, 4.658131e+002
6.882998e+002, 4.653558e+002
6.887819e+002, 4.651371e+002
6.892640e+002, 4.651451e+002
6.897462e+002, 4.652626e+002
6.902283e+002, 4.654462e+002
6.907104e+002, 4.656503e+002
6.911925e+002, 4.658377e+002
6.916746e+002, 4.660392e+002
6.921567e+002, 4.659473e+002
6.926389e+002, 4.652445e+002
6.931210e+002, 4.646825e+002
6.936031e+002, 4.645699e+002
6.940852e+002, 4.646133e+002
6.945673e+002, 4.645155e+002
6.950494e+002, 4.642421e+002
6.955316e+002, 4.639496e+002
6.960137e+002, 4.635661e+002
6.964958e+002, 4.633199e+002
6.969779e+002, 4.636905e+002
6.974600e+002, 4.645209e+002
6.979421e+002, 4.650309e+002
6.984243e+002, 4.649184e+002
6.989064e+002, 4.646516e+002
6.993885e+002, 4.648319e+002
6.998706e+002, 4.655062e+002
7.003527e+002, 4.660218e+002
7.008348e+002, 4.666127e+002
7.013170e+002, 4.667414e+002
7.017991e+002, 4.658190e+002
7.022812e+002, 4.647210e+002
7.027633e+002, 4.642643e+002
7.032454e+002, 4.644995e+002
7.037275e+002, 4.649362e+002
7.042097e+002, 4.653805e+002
7.046918e+002, 4.657485e+002
7.051739e+002, 4.658104e+002
7.056560e+002, 4.656346e+002
7.061381e+002, 4.657358e+002
7.066202e+002, 4.663169e+002
7.071024e+002, 4.668493e+002
7.075845e+002, 4.667403e+002
7.080666e+002, 4.660021e+002
7.085487e+002, 4.655385e+002
7.090308e+002, 4.653589e+002
7.095129e+002, 4.654195e+002
7.099951e+002, 4.657235e+002
7.104772e+002, 4.662536e+002
7.109593e+002, 4.672198e+002
7.114414e+002, 4.684381e+002
7.119235e+002, 4.692869e+002
7.124056e+002, 4.693717e+002
7.128878e+002, 4.689863e+002
7.133699e+002, 4.684335e+002
7.138520e+002, 4.677650e+002
7.143341e+002, 4.673778e+002
7.148162e+002, 4.673639e+002
7.152983e+002, 4.675804e+002
7.157805e+002, 4.680611e+002
7.162626e+002, 4.686765e+002
7.167447e+002, 4.686613e+002
7.172268e+002, 4.671278e+002
7.177089e+002, 4.662823e+002
7.181910e+002, 4.669608e+002
7.186732e+002, 4.678170e+002
7.191553e+002, 4.678182e+002
7.196374e+002, 4.671853e+002
7.201195e+002, 4.666251e+002
7.206016e+002, 4.664425e+002
7.210837e+002, 4.666719e+002
7.215659e+002, 4.677070e+002
7.220480e+002, 4.692964e+002
7.225301e+002, 4.698912e+002
7.230122e+002, 4.691971e+002
7.234943e+002, 4.683785e+002
7.239764e+002, 4.680792e+002
7.244586e+002, 4.681526e+002
7.249407e+002, 4.682246e+002
7.254228e+002, 4.682136e+002
7.259049e+002, 4.683981e+002
7.263870e+002, 4.691042e+002
7.268691e+002, 4.696948e+002
7.273513e+002, 4.696673e+002
7.278334e+002, 4.693289e+002
7.283155e+002, 4.692773e+002
7.287976e+002, 4.696957e+002
7.292797e+002, 4.701179e+002
7.297618e+002, 4.698847e+002
7.302440e+002, 4.692516e+002
7.307261e+002, 4.692813e+002
7.312082e+002, 4.700577e+002
7.316903e+002, 4.705727e+002
7.321724e+002, 4.703236e+002
7.326545e+002, 4.697788e+002
7.331367e+002, 4.696414e+002
7.336188e+002, 4.700289e+002
7.341009e+002, 4.701632e+002
7.345830e+002, 4.695016e+002
7.350651e+002, 4.692340e+002
7.355472e+002, 4.702209e+002
7.360294e+002, 4.715591e+002
7.365115e+002, 4.721767e+002
7.369936e+002, 4.719542e+002
7.374757e+002, 4.715156e+002
7.379578e+002, 4.712098e+002
7.384399e+002, 4.710968e+002
7.389221e+002, 4.714554e+002
7.394042e+002, 4.722353e+002
7.398863e+002, 4.726399e+002
7.403684e+002, 4.724188e+002
7.408505e+002, 4.719789e+002
7.413326e+002, 4.716405e+002
7.418148e+002, 4.714095e+002
7.422969e+002, 4.713639e+002
7.427790e+002, 4.714417e+002
7.432611e+002, 4.717754e+002
7.437432e+002, 4.728685e+002
7.442253e+002, 4.738159e+002
7.447075e+002, 4.737866e+002
7.451896e+002, 4.730316e+002
7.456717e+002, 4.723570e+002
7.461538e+002, 4.721368e+002
7.466359e+002, 4.721613e+002
7.471180e+002, 4.722368e+002
7.476002e+002, 4.723474e+002
7.480823e+002, 4.724511e+002
7.485644e+002, 4.725462e+002
7.490465e+002, 4.725666e+002
7.495286e+002, 4.724586e+002
7.500107e+002, 4.722713e+002
7.504929e+002, 4.720970e+002
7.509750e+002, 4.717921e+002
7.514571e+002, 4.718737e+002
7.519392e+002, 4.728607e+002
7.524213e+002, 4.736230e+002
7.529034e+002, 4.735401e+002
7.533856e+002, 4.730413e+002
7.538677e+002, 4.727044e+002
7.543498e+002, 4.726659e+002
7.548319e+002, 4.727427e+002
7.553140e+002, 4.727272e+002
7.557961e+002, 4.727780e+002
7.562783e+002, 4.732193e+002
7.567604e+002, 4.739950e+002
7.572425e+002, 4.748510e+002
7.577246e+002, 4.757260e+002
7.582067e+002, 4.763514e+002
7.586888e+002, 4.763294e+002
7.591710e+002, 4.756659e+002
7.596531e+002, 4.754160e+002
7.601352e+002, 4.759225e+002
7.606173e+002, 4.763201e+002
7.610994e+002, 4.763831e+002
7.615815e+002, 4.763814e+002
7.620637e+002, 4.765285e+002
7.625458e+002, 4.767903e+002
7.630279e+002, 4.770133e+002
7.635100e+002, 4.772178e+002
7.639921e+002, 4.772147e+002
7.644742e+002, 4.766875e+002
7.649564e+002, 4.759011e+002
7.654385e+002, 4.752008e+002
7.659206e+002, 4.746960e+002
7.664027e+002, 4.747801e+002
7.668848e+002, 4.757643e+002
7.673669e+002, 4.772124e+002
7.678491e+002, 4.780668e+002
7.683312e+002, 4.781613e+002
7.688133e+002, 4.782944e+002
7.692954e+002, 4.785669e+002
7.697775e+002, 4.787558e+002
7.702596e+002, 4.787116e+002
7.707418e+002, 4.785552e+002
7.712239e+002, 4.784457e+002
7.717060e+002, 4.784055e+002
7.721881e+002, 4.783354e+002
7.726702e+002, 4.780533e+002
7.731523e+002, 4.778558e+002
7.736345e+002, 4.782036e+002
7.741166e+002, 4.787688e+002
7.745987e+002, 4.787573e+002
7.750808e+002, 4.780117e+002
7.755629e+002, 4.772721e+002
7.760450e+002, 4.773045e+002
7.765272e+002, 4.779512e+002
7.770093e+002, 4.785158e+002
7.774914e+002, 4.790370e+002
7.779735e+002, 4.792408e+002
7.784556e+002, 4.788783e+002
7.789377e+002, 4.784690e+002
7.794199e+002, 4.784720e+002
7.799020e+002, 4.788264e+002
7.803841e+002, 4.792238e+002
7.808662e+002, 4.798519e+002
7.813483e+002, 4.802225e+002
7.818304e+002, 4.799097e+002
7.823126e+002, 4.795477e+002
7.827947e+002, 4.796954e+002
7.832768e+002, 4.802435e+002
7.837589e+002, 4.808477e+002
7.842410e+002, 4.813654e+002
7.847231e+002, 4.816767e+002
7.852053e+002, 4.814587e+002
7.856874e+002, 4.808990e+002
7.861695e+002, 4.807899e+002
7.866516e+002, 4.811891e+002
7.871337e+002, 4.816746e+002
7.876158e+002, 4.821146e+002
7.880980e+002, 4.824155e+002
7.885801e+002, 4.823516e+002
7.890622e+002, 4.817823e+002
7.895443e+002, 4.817911e+002
7.900264e+002, 4.824489e+002
7.905085e+002, 4.835753e+002
7.909907e+002, 4.862056e+002
7.914728e+002, 4.885239e+002
7.919549e+002, 4.884952e+002
7.924370e+002, 4.864080e+002
7.929191e+002, 4.844077e+002
7.934012e+002, 4.834567e+002
7.938834e+002, 4.831500e+002
7.943655e+002, 4.833752e+002
7.948476e+002, 4.838712e+002
7.953297e+002, 4.840184e+002
7.958118e+002, 4.837678e+002
7.962939e+002, 4.835880e+002
7.967761e+002, 4.837890e+002
7.972582e+002, 4.842258e+002
7.977403e+002, 4.846164e+002
7.982224e+002, 4.850663e+002
7.987045e+002, 4.849689e+002
7.991866e+002, 4.837651e+002
7.996688e+002, 4.828740e+002
8.001509e+002, 4.832796e+002
8.006330e+002, 4.841888e+002
8.011151e+002, 4.846546e+002
8.015972e+002, 4.845930e+002
8.020793e+002, 4.845375e+002
8.025615e+002, 4.843254e+002
8.030436e+002, 4.844980e+002
8.035257e+002, 4.858123e+002
8.040078e+002, 4.875435e+002
8.044899e+002, 4.886506e+002
8.049720e+002, 4.889406e+002
8.054542e+002, 4.887899e+002
8.059363e+002, 4.884134e+002
8.064184e+002, 4.879200e+002
8.069005e+002, 4.875008e+002
8.073826e+002, 4.871598e+002
8.078647e+002, 4.871424e+002
8.083469e+002, 4.875981e+002
8.088290e+002, 4.878118e+002
8.093111e+002, 4.870778e+002
8.097932e+002, 4.858691e+002
8.102753e+002, 4.856841e+002
8.107574e+002, 4.873554e+002
8.112396e+002, 4.883559e+002
8.117217e+002, 4.881082e+002
8.122038e+002, 4.878588e+002
8.126859e+002, 4.882633e+002
8.131680e+002, 4.889315e+002
8.136501e+002, 4.892624e+002
8.141323e+002, 4.891606e+002
8.146144e+002, 4.891006e+002
8.150965e+002, 4.896689e+002
8.155786e+002, 4.902038e+002
8.160607e+002, 4.897119e+002
8.165428e+002, 4.885811e+002
8.170250e+002, 4.878638e+002
8.175071e+002, 4.877870e+002
8.179892e+002, 4.878587e+002
8.184713e+002, 4.876537e+002
8.189534e+002, 4.872889e+002
8.194355e+002, 4.872349e+002
8.199177e+002, 4.875957e+002
8.203998e+002, 4.877226e+002
8.208819e+002, 4.872292e+002
8.213640e+002, 4.870284e+002
8.218461e+002, 4.879987e+002
8.223282e+002, 4.895301e+002
8.228104e+002, 4.904396e+002
8.232925e+002, 4.906294e+002
8.237746e+002, 4.904986e+002
8.242567e+002, 4.893873e+002
8.247388e+002, 4.887635e+002
8.252209e+002, 4.900784e+002
8.257031e+002, 4.921395e+002
8.261852e+002, 4.932213e+002
8.266673e+002, 4.929977e+002
8.271494e+002, 4.922682e+002
8.276315e+002, 4.913995e+002
8.281136e+002, 4.906609e+002
8.285958e+002, 4.906488e+002
8.290779e+002, 4.912061e+002
8.295600e+002, 4.914874e+002
8.300421e+002, 4.913153e+002
8.305242e+002, 4.913625e+002
8.310063e+002, 4.922141e+002
8.314885e+002, 4.934878e+002
8.319706e+002, 4.939391e+002
8.324527e+002, 4.930785e+002
8.329348e+002, 4.927010e+002
8.334169e+002, 4.933617e+002
8.338990e+002, 4.938106e+002
8.343812e+002, 4.931050e+002
8.348633e+002, 4.921712e+002
8.353454e+002, 4.924153e+002
8.358275e+002, 4.940041e+002
8.363096e+002, 4.949359e+002
8.367917e+002, 4.939881e+002
8.372739e+002, 4.927981e+002
8.377560e+002, 4.921194e+002
8.382381e+002, 4.919709e+002
8.387202e+002, 4.925494e+002
8.392023e+002, 4.937014e+002
8.396844e+002, 4.947587e+002
8.401666e+002, 4.952848e+002
8.406487e+002, 4.954218e+002
8.411308e+002, 4.953475e+002
8.416129e+002, 4.950809e+002
8.420950e+002, 4.947011e+002
8.425771e+002, 4.941944e+002
8.430593e+002, 4.938506e+002
8.435414e+002, 4.938258e+002
8.440235e+002, 4.940695e+002
8.445056e+002, 4.945651e+002
8.449877e+002, 4.954843e+002
8.454698e+002, 4.957818e+002
8.459520e+002, 4.948507e+002
8.464341e+002, 4.940979e+002
8.469162e+002, 4.939427e+002
8.473983e+002, 4.940182e+002
8.478804e+002, 4.940518e+002
8.483625e+002, 4.940213e+002
8.488447e+002, 4.939295e+002
8.493268e+002, 4.935276e+002
8.498089e+002, 4.934553e+002
8.502910e+002, 4.946380e+002
8.507731e+002, 4.959640e+002
8.512552e+002, 4.957944e+002
8.517374e+002, 4.945150e+002
8.522195e+002, 4.938218e+002
8.527016e+002, 4.944946e+002
8.531837e+002, 4.956289e+002
8.536658e+002, 4.961441e+002
8.541479e+002, 4.961131e+002
8.546301e+002, 4.957999e+002
8.551122e+002, 4.952007e+002
8.555943e+002, 4.947456e+002
8.560764e+002, 4.945938e+002
8.565585e+002, 4.946006e+002
8.570406e+002, 4.946496e+002
8.575228e+002, 4.947263e+002
8.580049e+002, 4.946066e+002
8.584870e+002, 4.937343e+002
8.589691e+002, 4.936333e+002
8.594512e+002, 4.955533e+002
8.599333e+002, 4.971177e+002
8.604155e+002, 4.965226e+002
8.608976e+002, 4.948563e+002
8.613797e+002, 4.943377e+002
8.618618e+002, 4.955784e+002
8.623439e+002, 4.966169e+002
8.628260e+002, 4.963672e+002
8.633082e+002, 4.958599e+002
8.637903e+002, 4.959647e+002
8.642724e+002, 4.963734e+002
8.647545e+002, 4.964661e+002
8.652366e+002, 4.961349e+002
8.657188e+002, 4.957521e+002
8.662009e+002, 4.956315e+002
8.666830e+002, 4.955845e+002
8.671651e+002, 4.950817e+002
8.676472e+002, 4.942581e+002
8.681293e+002, 4.941031e+002
8.686115e+002, 4.947903e+002
8.690936e+002, 4.953982e+002
8.695757e+002, 4.953219e+002
8.700578e+002, 4.949584e+002
8.705399e+002, 4.951377e+002
8.710220e+002, 4.959677e+002
8.715042e+002, 4.968374e+002
8.719863e+002, 4.981223e+002
8.724684e+002, 4.988406e+002
8.729505e+002, 4.982477e+002
8.734326e+002, 4.972879e+002
8.739147e+002, 4.967093e+002
8.743969e+002, 4.965012e+002
8.748790e+002, 4.964295e+002
8.753611e+002, 4.966229e+002
8.758432e+002, 4.967123e+002
8.763253e+002, 4.967162e+002
8.768074e+002, 4.964461e+002
8.772896e+002, 4.952314e+002
8.777717e+002, 4.936938e+002
8.782538e+002, 4.933180e+002
8.787359e+002, 4.946332e+002
8.792180e+002, 4.964203e+002
8.797001e+002, 4.977833e+002
8.801823e+002, 4.987438e+002
8.806644e+002, 4.993511e+002
8.811465e+002, 4.995963e+002
8.816286e+002, 4.992960e+002
8.821107e+002, 4.984234e+002
8.825928e+002, 4.976525e+002
8.830750e+002, 4.976165e+002
8.835571e+002, 4.980591e+002
8.840392e+002, 4.980049e+002
8.845213e+002, 4.972550e+002
8.850034e+002, 4.971442e+002
8.854855e+002, 4.978041e+002
8.859677e+002, 4.991322e+002
8.864498e+002, 5.017147e+002
8.869319e+002, 5.044647e+002
8.874140e+002, 5.054794e+002
8.878961e+002, 5.045738e+002
8.883782e+002, 5.031646e+002
8.888604e+002, 5.002328e+002
8.893425e+002, 4.981770e+002
8.898246e+002, 4.982672e+002
8.903067e+002, 4.990131e+002
8.907888e+002, 4.992075e+002
8.912709e+002, 4.988679e+002
8.917531e+002, 4.985121e+002
8.922352e+002, 4.983366e+002
8.927173e+002, 4.981315e+002
8.931994e+002, 4.974809e+002
8.936815e+002, 4.969224e+002
8.941636e+002, 4.972713e+002
8.946458e+002, 4.982406e+002
8.951279e+002, 4.990095e+002
8.956100e+002, 4.993126e+002
8.960921e+002, 4.993994e+002
8.965742e+002, 4.994975e+002
8.970563e+002, 4.995698e+002
8.975385e+002, 4.995484e+002
8.980206e+002, 4.994233e+002
8.985027e+002, 4.989554e+002
8.989848e+002, 4.980314e+002
8.994669e+002, 4.975800e+002
8.999490e+002, 4.983405e+002
9.004312e+002, 4.996848e+002
9.009133e+002, 5.000883e+002
9.013954e+002, 4.991718e+002
9.018775e+002, 4.991088e+002
9.023596e+002, 5.005556e+002
9.028417e+002, 5.017456e+002
9.033239e+002, 5.021562e+002
9.038060e+002, 5.020599e+002
9.042881e+002, 5.015098e+002
9.047702e+002, 5.006176e+002
9.052523e+002, 5.000738e+002
9.057344e+002, 5.000381e+002
9.062166e+002, 5.002467e+002
9.066987e+002, 5.011822e+002
9.071808e+002, 5.018270e+002
9.076629e+002, 5.010441e+002
9.081450e+002, 4.995656e+002
9.086271e+002, 4.988043e+002
9.091093e+002, 4.991168e+002
9.095914e+002, 4.996573e+002
9.100735e+002, 4.998229e+002
9.105556e+002, 4.999428e+002
9.110377e+002, 5.005432e+002
9.115198e+002, 5.013265e+002
9.120020e+002, 5.016073e+002
9.124841e+002, 5.013401e+002
9.129662e+002, 5.010004e+002
9.134483e+002, 5.008763e+002
9.139304e+002, 5.009269e+002
9.144125e+002, 5.013004e+002
9.148947e+002, 5.018709e+002
9.153768e+002, 5.013359e+002
9.158589e+002, 4.995677e+002
9.163410e+002, 4.985054e+002
9.168231e+002, 4.989032e+002
9.173052e+002, 5.001352e+002
9.177874e+002, 5.017024e+002
9.182695e+002, 5.034755e+002
9.187516e+002, 5.040366e+002
9.192337e+002, 5.026805e+002
9.197158e+002, 5.018314e+002
9.201979e+002, 5.021470e+002
9.206801e+002, 5.024540e+002
9.211622e+002, 5.019077e+002
9.216443e+002, 5.010229e+002
9.221264e+002, 5.006052e+002
9.226085e+002, 5.007120e+002
9.230906e+002, 5.010237e+002
9.235728e+002, 5.016101e+002
9.240549e+002, 5.022466e+002
9.245370e+002, 5.029174e+002
9.250191e+002, 5.035386e+002
9.255012e+002, 5.040508e+002
9.259833e+002, 5.044384e+002
9.264655e+002, 5.047247e+002
9.269476e+002, 5.049537e+002
9.274297e+002, 5.049138e+002
9.279118e+002, 5.041227e+002
9.283939e+002, 5.032491e+002
9.288760e+002, 5.031891e+002
9.293582e+002, 5.036340e+002
9.298403e+002, 5.038252e+002
9.303224e+002, 5.035651e+002
9.308045e+002, 5.030518e+002
9.312866e+002, 5.022989e+002
9.317687e+002, 5.016971e+002
9.322509e+002, 5.022179e+002
9.327330e+002, 5.035792e+002
9.332151e+002, 5.045074e+002
9.336972e+002, 5.048676e+002
9.341793e+002, 5.049685e+002
9.346614e+002, 5.049444e+002
9.351436e+002, 5.048577e+002
9.356257e+002, 5.047724e+002
9.361078e+002, 5.046984e+002
9.365899e+002, 5.048676e+002
9.370720e+002, 5.053823e+002
9.375541e+002, 5.056971e+002
9.380363e+002, 5.056105e+002
9.385184e+002, 5.054807e+002
9.390005e+002, 5.055908e+002
9.394826e+002, 5.058332e+002
9.399647e+002, 5.059005e+002
9.404468e+002, 5.056826e+002
9.409290e+002, 5.055762e+002
9.414111e+002, 5.057248e+002
9.418932e+002, 5.057923e+002
9.423753e+002, 5.053931e+002
9.428574e+002, 5.050906e+002
9.433395e+002, 5.056647e+002
9.438217e+002, 5.068827e+002
9.443038e+002, 5.074810e+002
9.447859e+002, 5.067426e+002
9.452680e+002, 5.062118e+002
9.457501e+002, 5.067750e+002
9.462322e+002, 5.074330e+002
9.467144e+002, 5.071862e+002
9.471965e+002, 5.066008e+002
9.476786e+002, 5.068842e+002
9.481607e+002, 5.081638e+002
9.486428e+002, 5.090983e+002
9.491249e+002, 5.086436e+002
9.496071e+002, 5.077163e+002
9.500892e+002, 5.069731e+002
9.505713e+002, 5.065291e+002
9.510534e+002, 5.067748e+002
9.515355e+002, 5.075497e+002
9.520176e+002, 5.080683e+002
9.524998e+002, 5.079882e+002
9.529819e+002, 5.079583e+002
9.534640e+002, 5.090206e+002
9.539461e+002, 5.106389e+002
9.544282e+002, 5.110820e+002
9.549103e+002, 5.104793e+002
9.553925e+002, 5.097138e+002
9.558746e+002, 5.089643e+002
9.563567e+002, 5.086423e+002
9.568388e+002, 5.090922e+002
9.573209e+002, 5.099406e+002
9.578030e+002, 5.104264e+002
9.582852e+002, 5.105465e+002
9.587673e+002, 5.101634e+002
9.592494e+002, 5.089526e+002
9.597315e+002, 5.086500e+002
9.602136e+002, 5.102150e+002
9.606957e+002, 5.119791e+002
9.611779e+002, 5.122868e+002
9.616600e+002, 5.114267e+002
9.621421e+002, 5.109412e+002
9.626242e+002, 5.111215e+002
9.631063e+002, 5.111026e+002
9.635884e+002, 5.106739e+002
9.640706e+002, 5.103067e+002
9.645527e+002, 5.100794e+002
9.650348e+002, 5.100622e+002
9.655169e+002, 5.103788e+002
9.659990e+002, 5.110117e+002
9.664811e+002, 5.117027e+002
9.669633e+002, 5.129055e+002
9.674454e+002, 5.134620e+002
9.679275e+002, 5.125549e+002
9.684096e+002, 5.114695e+002
9.688917e+002, 5.110627e+002
9.693738e+002, 5.110843e+002
9.698560e+002, 5.109471e+002
9.703381e+002, 5.105533e+002
9.708202e+002, 5.104913e+002
9.713023e+002, 5.112464e+002
9.717844e+002, 5.121907e+002
9.722665e+002, 5.132052e+002
9.727487e+002, 5.139730e+002
9.732308e+002, 5.138992e+002
9.737129e+002, 5.132477e+002
9.741950e+002, 5.127996e+002
9.746771e+002, 5.128569e+002
9.751592e+002, 5.132271e+002
9.756414e+002, 5.141138e+002
9.761235e+002, 5.149367e+002
9.766056e+002, 5.145028e+002
9.770877e+002, 5.134310e+002
9.775698e+002, 5.133754e+002
9.780519e+002, 5.144335e+002
9.785341e+002, 5.153278e+002
9.790162e+002, 5.152892e+002
9.794983e+002, 5.148587e+002
9.799804e+002, 5.147582e+002
9.804625e+002, 5.149380e+002
9.809446e+002, 5.152249e+002
9.814268e+002, 5.156135e+002
9.819089e+002, 5.161091e+002
9.823910e+002, 5.167137e+002
9.828731e+002, 5.173508e+002
9.833552e+002, 5.179949e+002
9.838373e+002, 5.185096e+002
9.843195e+002, 5.184428e+002
9.848016e+002, 5.177543e+002
9.852837e+002, 5.173474e+002
9.857658e+002, 5.172094e+002
9.862479e+002, 5.177058e+002
9.867300e+002, 5.192237e+002
9.872122e+002, 5.206518e+002
9.876943e+002, 5.207922e+002
9.881764e+002, 5.199075e+002
9.886585e+002, 5.194306e+002
9.891406e+002, 5.194340e+002
9.896227e+002, 5.196708e+002
9.901049e+002, 5.204483e+002
9.905870e+002, 5.208425e+002
9.910691e+002, 5.199803e+002
9.915512e+002, 5.190309e+002
9.920333e+002, 5.196947e+002
9.925154e+002, 5.218924e+002
9.929976e+002, 5.230295e+002
9.934797e+002, 5.223065e+002
9.939618e+002, 5.217492e+002
9.944439e+002, 5.215422e+002
9.949260e+002, 5.214263e+002
9.954081e+002, 5.208250e+002
9.958903e+002, 5.204904e+002
9.963724e+002, 5.217637e+002
9.968545e+002, 5.246755e+002
9.973366e+002, 5.269003e+002
9.978187e+002, 5.285300e+002
9.983008e+002, 5.286807e+002
9.987830e+002, 5.254044e+002
9.992651e+002, 5.222131e+002
9.997472e+002, 5.218923e+002
1.000229e+003, 5.233669e+002
1.000711e+003, 5.246619e+002
1.001194e+003, 5.253707e+002
1.001676e+003, 5.256685e+002
1.002158e+003, 5.253336e+002
1.002640e+003, 5.249661e+002
1.003122e+003, 5.249907e+002
1.003604e+003, 5.250988e+002
1.004086e+003, 5.248154e+002
1.004568e+003, 5.243681e+002
1.005050e+003, 5.244675e+002
1.005533e+003, 5.253214e+002
1.006015e+003, 5.260306e+002
1.006497e+003, 5.257407e+002
1.006979e+003, 5.252447e+002
1.007461e+003, 5.254151e+002
1.007943e+003, 5.258403e+002
1.008425e+003, 5.257903e+002
1.008907e+003, 5.253425e+002
1.009390e+003, 5.249817e+002
1.009872e+003, 5.249166e+002
1.010354e+003, 5.253741e+002
1.010836e+003, 5.273062e+002
1.011318e+003, 5.294094e+002
1.011800e+003, 5.291409e+002
1.012282e+003, 5.274124e+002
1.012764e+003, 5.264420e+002
1.013246e+003, 5.265211e+002
1.013729e+003, 5.269316e+002
1.014211e+003, 5.273039e+002
1.014693e+003, 5.276035e+002
1.015175e+003, 5.277372e+002
1.015657e+003, 5.277777e+002
1.016139e+003, 5.279476e+002
1.016621e+003, 5.282250e+002
1.017103e+003, 5.285792e+002
1.017586e+003, 5.289752e+002
1.018068e+003, 5.289724e+002
1.018550e+003, 5.282516e+002
1.019032e+003, 5.274442e+002
1.019514e+003, 5.277698e+002
1.019996e+003, 5.290172e+002
1.020478e+003, 5.295353e+002
1.020960e+003, 5.293534e+002
1.021442e+003, 5.296047e+002
1.021925e+003, 5.305779e+002
1.022407e+003, 5.314050e+002
1.022889e+003, 5.314363e+002
1.023371e+003, 5.311168e+002
1.023853e+003, 5.313683e+002
1.024335e+003, 5.321947e+002
1.024817e+003, 5.329929e+002
1.025299e+003, 5.338317e+002
1.025781e+003, 5.339763e+002
1.026264e+003, 5.330734e+002
1.026746e+003, 5.321555e+002
1.027228e+003, 5.319823e+002
1.027710e+003, 5.323347e+002
1.028192e+003, 5.327226e+002
1.028674e+003, 5.331473e+002
1.029156e+003, 5.336134e+002
1.029638e+003, 5.342458e+002
1.030120e+003, 5.344182e+002
1.030603e+003, 5.337023e+002
1.031085e+003, 5.331124e+002
1.031567e+003, 5.335657e+002
1.032049e+003, 5.346141e+002
1.032531e+003, 5.350324e+002
1.033013e+003, 5.346163e+002
1.033495e+003, 5.345171e+002
1.033977e+003, 5.348937e+002
1.034460e+003, 5.352678e+002
1.034942e+003, 5.355895e+002
1.035424e+003, 5.357810e+002
1.035906e+003, 5.357253e+002
1.036388e+003, 5.355145e+002
1.036870e+003, 5.354166e+002
1.037352e+003, 5.354935e+002
1.037834e+003, 5.354744e+002
1.038317e+003, 5.352767e+002
1.038799e+003, 5.351055e+002
1.039281e+003, 5.347327e+002
1.039763e+003, 5.346780e+002
1.040245e+003, 5.356345e+002
1.040727e+003, 5.371809e+002
1.041209e+003, 5.381545e+002
1.041691e+003, 5.384941e+002
1.042173e+003, 5.384418e+002
1.042656e+003, 5.374285e+002
1.043138e+003, 5.367919e+002
1.043620e+003, 5.372073e+002
1.044102e+003, 5.377864e+002
1.044584e+003, 5.376990e+002
1.045066e+003, 5.372773e+002
1.045548e+003, 5.374631e+002
1.046030e+003, 5.385229e+002
1.046512e+003, 5.393655e+002
1.046995e+003, 5.398845e+002
1.047477e+003, 5.401576e+002
1.047959e+003, 5.400825e+002
1.048441e+003, 5.398842e+002
1.048923e+003, 5.396932e+002
1.049405e+003, 5.395274e+002
1.049887e+003, 5.393332e+002
1.050369e+003, 5.390077e+002
1.050852e+003, 5.391845e+002
1.051334e+003, 5.407439e+002
1.051816e+003, 5.418310e+002
1.052298e+003, 5.415347e+002
1.052780e+003, 5.407687e+002
1.053262e+003, 5.399355e+002
1.053744e+003, 5.393162e+002
1.054226e+003, 5.394512e+002
1.054708e+003, 5.405087e+002
1.055191e+003, 5.416111e+002
1.055673e+003, 5.429462e+002
1.056155e+003, 5.437328e+002
1.056637e+003, 5.431236e+002
1.057119e+003, 5.423334e+002
1.057601e+003, 5.425904e+002
1.058083e+003, 5.433801e+002
1.058565e+003, 5.434034e+002
1.059047e+003, 5.423671e+002
1.059530e+003, 5.415786e+002
1.060012e+003, 5.413423e+002
1.060494e+003, 5.416082e+002
1.060976e+003, 5.426179e+002
1.061458e+003, 5.438791e+002
1.061940e+003, 5.454479e+002
1.062422e+003, 5.468054e+002
1.062904e+003, 5.468009e+002
1.063387e+003, 5.452367e+002
1.063869e+003, 5.441885e+002
1.064351e+003, 5.452335e+002
1.064833e+003, 5.459086e+002
1.065315e+003, 5.444611e+002
1.065797e+003, 5.428010e+002
1.066279e+003, 5.425491e+002
1.066761e+003, 5.432589e+002
1.067244e+003, 5.440261e+002
1.067726e+003, 5.446646e+002
1.068208e+003, 5.452376e+002
1.068690e+003, 5.459341e+002
1.069172e+003, 5.463502e+002
1.069654e+003, 5.460189e+002
1.070136e+003, 5.456015e+002
1.070618e+003, 5.457018e+002
1.071100e+003, 5.460575e+002
1.071583e+003, 5.461542e+002
1.072065e+003, 5.459422e+002
1.072547e+003, 5.458264e+002
1.073029e+003, 5.460167e+002
1.073511e+003, 5.462434e+002
1.073993e+003, 5.464604e+002
1.074475e+003, 5.465813e+002
1.074957e+003, 5.463359e+002
1.075439e+003, 5.460628e+002
1.075922e+003, 5.463399e+002
1.076404e+003, 5.471437e+002
1.076886e+003, 5.478405e+002
1.077368e+003, 5.481879e+002
1.077850e+003, 5.484092e+002
1.078332e+003, 5.486470e+002
1.078814e+003, 5.487608e+002
1.079297e+003, 5.485491e+002
1.079779e+003, 5.482131e+002
1.080261e+003, 5.479564e+002
1.080743e+003, 5.478344e+002
1.081225e+003, 5.479232e+002
1.081707e+003, 5.482925e+002
1.082189e+003, 5.487200e+002
1.082671e+003, 5.491787e+002
1.083153e+003, 5.495779e+002
1.083635e+003, 5.497647e+002
1.084118e+003, 5.499252e+002
1.084600e+003, 5.503823e+002
1.085082e+003, 5.510114e+002
1.085564e+003, 5.513591e+002
1.086046e+003, 5.512942e+002
1.086528e+003, 5.509717e+002
1.087010e+003, 5.501136e+002
1.087492e+003, 5.494324e+002
1.087975e+003, 5.493492e+002
1.088457e+003, 5.496198e+002
1.088939e+003, 5.500928e+002
1.089421e+003, 5.506722e+002
1.089903e+003, 5.512200e+002
1.090385e+003, 5.517031e+002
1.090867e+003, 5.521747e+002
1.091349e+003, 5.528195e+002
1.091832e+003, 5.532433e+002
1.092314e+003, 5.531435e+002
1.092796e+003, 5.528531e+002
1.093278e+003, 5.524260e+002
1.093760e+003, 5.521111e+002
1.094242e+003, 5.525009e+002
1.094724e+003, 5.536672e+002
1.095206e+003, 5.543152e+002
1.095688e+003, 5.534266e+002
1.096171e+003, 5.527845e+002
1.096653e+003, 5.531164e+002
1.097135e+003, 5.537906e+002
1.097617e+003, 5.546129e+002
1.098099e+003, 5.553588e+002
1.098581e+003, 5.557497e+002
1.099063e+003, 5.557730e+002
1.099545e+003, 5.556510e+002
1.100027e+003, 5.553209e+002
1.100510e+003, 5.550464e+002
1.100992e+003, 5.547614e+002
1.101474e+003, 5.546989e+002
1.101956e+003, 5.551774e+002
1.102438e+003, 5.558095e+002
1.102920e+003, 5.561525e+002
1.103402e+003, 5.562233e+002
1.103884e+003, 5.563121e+002
1.104367e+003, 5.565899e+002
1.104849e+003, 5.565702e+002
1.105331e+003, 5.557012e+002
1.105813e+003, 5.551112e+002
1.106295e+003, 5.555076e+002
1.106777e+003, 5.561349e+002
1.107259e+003, 5.560847e+002
1.107741e+003, 5.557268e+002
1.108224e+003, 5.563879e+002
1.108706e+003, 5.587257e+002
1.109188e+003, 5.598162e+002
1.109670e+003, 5.581654e+002
1.110152e+003, 5.569653e+002
1.110634e+003, 5.572677e+002
1.111116e+003, 5.579240e+002
1.111598e+003, 5.580859e+002
1.112080e+003, 5.581068e+002
1.112563e+003, 5.588929e+002
1.113045e+003, 5.606578e+002
1.113527e+003, 5.612664e+002
1.114009e+003, 5.597339e+002
1.114491e+003, 5.586592e+002
1.114973e+003, 5.586105e+002
1.115455e+003, 5.586321e+002
1.115937e+003, 5.581433e+002
1.116419e+003, 5.576036e+002
1.116902e+003, 5.576597e+002
1.117384e+003, 5.582562e+002
1.117866e+003, 5.587037e+002
1.118348e+003, 5.588776e+002
1.118830e+003, 5.591874e+002
1.119312e+003, 5.596136e+002
1.119794e+003, 5.602677e+002
1.120276e+003, 5.613811e+002
1.120759e+003, 5.624034e+002
1.121241e+003, 5.627006e+002
1.121723e+003, 5.625570e+002
1.122205e+003, 5.630809e+002
1.122687e+003, 5.645881e+002
1.123169e+003, 5.652090e+002
1.123651e+003, 5.646241e+002
1.124133e+003, 5.642021e+002
1.124615e+003, 5.642881e+002
1.125098e+003, 5.645920e+002
1.125580e+003, 5.649951e+002
1.126062e+003, 5.653221e+002
1.126544e+003, 5.651698e+002
1.127026e+003, 5.645567e+002
1.127508e+003, 5.643533e+002
1.127990e+003, 5.646439e+002
1.128472e+003, 5.645078e+002
1.128954e+003, 5.636794e+002
1.129437e+003, 5.633991e+002
1.129919e+003, 5.643197e+002
1.130401e+003, 5.658689e+002
1.130883e+003, 5.675027e+002
1.131365e+003, 5.690060e+002
1.131847e+003, 5.693421e+002
1.132329e+003, 5.685884e+002
1.132811e+003, 5.683232e+002
1.133294e+003, 5.686472e+002
1.133776e+003, 5.687872e+002
1.134258e+003, 5.684846e+002
1.134740e+003, 5.680674e+002
1.135222e+003, 5.677557e+002
1.135704e+003, 5.677390e+002
1.136186e+003, 5.687196e+002
1.136668e+003, 5.702958e+002
1.137151e+003, 5.705952e+002
1.137633e+003, 5.699068e+002
1.138115e+003, 5.700994e+002
1.138597e+003, 5.713663e+002
1.139079e+003, 5.718708e+002
1.139561e+003, 5.705701e+002
1.140043e+003, 5.690128e+002
1.140525e+003, 5.690477e+002
1.141007e+003, 5.700953e+002
1.141490e+003, 5.714168e+002
1.141972e+003, 5.727342e+002
1.142454e+003, 5.733561e+002
1.142936e+003, 5.733495e+002
1.143418e+003, 5.731857e+002
1.143900e+003, 5.730492e+002
1.144382e+003, 5.729681e+002
1.144864e+003, 5.728442e+002
1.145346e+003, 5.730208e+002
1.145829e+003, 5.742504e+002
1.146311e+003, 5.756891e+002
1.146793e+003, 5.763505e+002
1.147275e+003, 5.763332e+002
1.147757e+003, 5.758234e+002
1.148239e+003, 5.749973e+002
1.148721e+003, 5.742631e+002
1.149203e+003, 5.737657e+002
1.149686e+003, 5.735869e+002
1.150168e+003, 5.738166e+002
1.150650e+003, 5.743536e+002
1.151132e+003, 5.754817e+002
1.151614e+003, 5.766050e+002
1.152096e+003, 5.770133e+002
1.152578e+003, 5.768544e+002
1.153060e+003, 5.765457e+002
1.153542e+003, 5.761654e+002
1.154025e+003, 5.761452e+002
1.154507e+003, 5.768564e+002
1.154989e+003, 5.776341e+002
1.155471e+003, 5.783986e+002
1.155953e+003, 5.789820e+002
1.156435e+003, 5.794033e+002
1.156917e+003, 5.795020e+002
1.157399e+003, 5.786484e+002
1.157881e+003, 5.770579e+002
1.158364e+003, 5.768002e+002
1.158846e+003, 5.789340e+002
1.159328e+003, 5.807620e+002
1.159810e+003, 5.823936e+002
1.160292e+003, 5.833092e+002
1.160774e+003, 5.828323e+002
1.161256e+003, 5.821710e+002
1.161738e+003, 5.822398e+002
1.162221e+003, 5.828418e+002
1.162703e+003, 5.836261e+002
1.163185e+003, 5.847395e+002
1.163667e+003, 5.846747e+002
1.164149e+003, 5.825795e+002
1.164631e+003, 5.819469e+002
1.165113e+003, 5.838339e+002
1.165595e+003, 5.856650e+002
1.166078e+003, 5.861580e+002
1.166560e+003, 5.859833e+002
1.167042e+003, 5.859540e+002
1.167524e+003, 5.860049e+002
1.168006e+003, 5.857965e+002
1.168488e+003, 5.853128e+002
1.168970e+003, 5.848793e+002
1.169452e+003, 5.844992e+002
1.169934e+003, 5.846069e+002
1.170417e+003, 5.853350e+002
1.170899e+003, 5.863300e+002
1.171381e+003, 5.873720e+002
1.171863e+003, 5.882761e+002
1.172345e+003, 5.886320e+002
1.172827e+003, 5.886127e+002
1.173309e+003, 5.888009e+002
1.173791e+003, 5.891635e+002
1.174273e+003, 5.896178e+002
1.174756e+003, 5.901190e+002
1.175238e+003, 5.906037e+002
1.175720e+003, 5.910293e+002
1.176202e+003, 5.911368e+002
1.176684e+003, 5.904915e+002
1.177166e+003, 5.898380e+002
1.177648e+003, 5.904186e+002
1.178130e+003, 5.913671e+002
1.178613e+003, 5.911604e+002
1.179095e+003, 5.904005e+002
1.179577e+003, 5.905839e+002
1.180059e+003, 5.917384e+002
1.180541e+003, 5.927089e+002
1.181023e+003, 5.930154e+002
1.181505e+003, 5.929722e+002
1.181987e+003, 5.922734e+002
1.182469e+003, 5.918829e+002
1.182952e+003, 5.927722e+002
1.183434e+003, 5.939915e+002
1.183916e+003, 5.943969e+002
1.184398e+003, 5.944781e+002
1.184880e+003, 5.955505e+002
1.185362e+003, 5.977464e+002
1.185844e+003, 5.992275e+002
1.186326e+003, 5.995120e+002
1.186808e+003, 5.991322e+002
1.187291e+003, 5.971536e+002
1.187773e+003, 5.957834e+002
1.188255e+003, 5.969213e+002
1.188737e+003, 5.982886e+002
1.189219e+003, 5.973885e+002
1.189701e+003, 5.950436e+002
1.190183e+003, 5.937160e+002
1.190665e+003, 5.934027e+002
1.191148e+003, 5.942864e+002
1.191630e+003, 5.972771e+002
1.192112e+003, 5.987825e+002
1.192594e+003, 5.976568e+002
1.193076e+003, 5.966505e+002
1.193558e+003, 5.972840e+002
1.194040e+003, 5.984307e+002
1.194522e+003, 5.986188e+002
1.195005e+003, 5.981448e+002
1.195487e+003, 5.982281e+002
1.195969e+003, 5.988537e+002
1.196451e+003, 5.998566e+002
1.196933e+003, 6.011760e+002
1.197415e+003, 6.016570e+002
1.197897e+003, 6.010439e+002
1.198379e+003, 6.003788e+002
1.198861e+003, 6.003046e+002
1.199344e+003, 6.007094e+002
1.199826e+003, 6.016271e+002
1.200308e+003, 6.027887e+002
1.200790e+003, 6.038589e+002
1.201272e+003, 6.046534e+002
1.201754e+003, 6.044861e+002
1.202236e+003, 6.036881e+002
1.202718e+003, 6.033793e+002
1.203200e+003, 6.038475e+002
1.203683e+003, 6.045831e+002
1.204165e+003, 6.054365e+002
1.204647e+003, 6.060426e+002
1.205129e+003, 6.061214e+002
1.205611e+003, 6.058432e+002
1.206093e+003, 6.049123e+002
1.206575e+003, 6.040374e+002
1.207057e+003, 6.041481e+002
1.207540e+003, 6.050417e+002
1.208022e+003, 6.060502e+002
1.208504e+003, 6.070762e+002
1.208986e+003, 6.076772e+002
1.209468e+003, 6.073582e+002
1.209950e+003, 6.071866e+002
1.210432e+003, 6.075643e+002
1.210914e+003, 6.079408e+002
1.211396e+003, 6.080404e+002
1.211879e+003, 6.079881e+002
1.212361e+003, 6.077336e+002
1.212843e+003, 6.074672e+002
1.213325e+003, 6.080856e+002
1.213807e+003, 6.100164e+002
1.214289e+003, 6.106197e+002
1.214771e+003, 6.094227e+002
1.215253e+003, 6.088770e+002
1.215735e+003, 6.096046e+002
1.216218e+003, 6.102966e+002
1.216700e+003, 6.101935e+002
1.217182e+003, 6.100148e+002
1.217664e+003, 6.106829e+002
1.218146e+003, 6.119534e+002
1.218628e+003, 6.133766e+002
1.219110e+003, 6.147277e+002
1.219592e+003, 6.145168e+002
1.220075e+003, 6.130420e+002
1.220557e+003, 6.122624e+002
1.221039e+003, 6.125400e+002
1.221521e+003, 6.128553e+002
1.222003e+003, 6.126491e+002
1.222485e+003, 6.122402e+002
1.222967e+003, 6.114011e+002
1.223449e+003, 6.110818e+002
1.223932e+003, 6.130048e+002
1.224414e+003, 6.156340e+002
1.224896e+003, 6.172059e+002
1.225378e+003, 6.177533e+002
1.225860e+003, 6.175593e+002
1.226342e+003, 6.168171e+002
1.226824e+003, 6.160616e+002
1.227306e+003, 6.152777e+002
1.227788e+003, 6.150630e+002
1.228271e+003, 6.160053e+002
1.228753e+003, 6.170472e+002
1.229235e+003, 6.178634e+002
1.229717e+003, 6.184737e+002
1.230199e+003, 6.188729e+002
1.230681e+003, 6.190865e+002
1.231163e+003, 6.191277e+002
1.231645e+003, 6.190001e+002
1.232127e+003, 6.189196e+002
1.232610e+003, 6.186766e+002
1.233092e+003, 6.192549e+002
1.233574e+003, 6.211240e+002
1.234056e+003, 6.222753e+002
1.234538e+003, 6.220223e+002
1.235020e+003, 6.212517e+002
1.235502e+003, 6.205290e+002
1.235984e+003, 6.200643e+002
1.236467e+003, 6.202981e+002
1.236949e+003, 6.210785e+002
1.237431e+003, 6.217896e+002
1.237913e+003, 6.224500e+002
1.238395e+003, 6.234183e+002
1.238877e+003, 6.244545e+002
1.239359e+003, 6.238710e+002
1.239841e+003, 6.215326e+002
1.240323e+003, 6.203352e+002
1.240806e+003, 6.222955e+002
1.241288e+003, 6.251843e+002
1.241770e+003, 6.275201e+002
1.242252e+003, 6.290709e+002
1.242734e+003, 6.293090e+002
1.243216e+003, 6.288641e+002
1.243698e+003, 6.281921e+002
1.244180e+003, 6.276006e+002
1.244662e+003, 6.276520e+002
1.245145e+003, 6.283705e+002
1.245627e+003, 6.287800e+002
1.246109e+003, 6.285602e+002
1.246591e+003, 6.281521e+002
1.247073e+003, 6.271263e+002
1.247555e+003, 6.266309e+002
1.248037e+003, 6.275245e+002
1.248519e+003, 6.285052e+002
1.249002e+003, 6.286520e+002
1.249484e+003, 6.282914e+002
1.249966e+003, 6.279005e+002
1.250448e+003, 6.275264e+002
1.250930e+003, 6.281323e+002
1.251412e+003, 6.298691e+002
1.251894e+003, 6.308519e+002
1.252376e+003, 6.309135e+002
1.252859e+003, 6.309865e+002
1.253341e+003, 6.313495e+002
1.253823e+003, 6.315791e+002
1.254305e+003, 6.313478e+002
1.254787e+003, 6.312141e+002
1.255269e+003, 6.322034e+002
1.255751e+003, 6.336231e+002
1.256233e+003, 6.340242e+002
1.256715e+003, 6.339988e+002
1.257198e+003, 6.347042e+002
1.257680e+003, 6.359653e+002
1.258162e+003, 6.370204e+002
1.258644e+003, 6.377807e+002
1.259126e+003, 6.389043e+002
1.259608e+003, 6.409470e+002
1.260090e+003, 6.422790e+002
1.260572e+003, 6.416524e+002
1.261054e+003, 6.407911e+002
1.261537e+003, 6.403120e+002
1.262019e+003, 6.401251e+002
1.262501e+003, 6.403417e+002
1.262983e+003, 6.406785e+002
1.263465e+003, 6.406517e+002
1.263947e+003, 6.403226e+002
1.264429e+003, 6.401451e+002
1.264911e+003, 6.399767e+002
1.265394e+003, 6.405306e+002
1.265876e+003, 6.420153e+002
1.266358e+003, 6.433640e+002
1.266840e+003, 6.444005e+002
1.267322e+003, 6.446241e+002
1.267804e+003, 6.436523e+002
1.268286e+003, 6.427162e+002
1.268768e+003, 6.434359e+002
1.269250e+003, 6.449891e+002
1.269733e+003, 6.455200e+002
1.270215e+003, 6.453991e+002
1.270697e+003, 6.454082e+002
1.271179e+003, 6.456295e+002
1.271661e+003, 6.463496e+002
1.272143e+003, 6.473474e+002
1.272625e+003, 6.475457e+002
1.273107e+003, 6.465463e+002
1.273589e+003, 6.459402e+002
1.274072e+003, 6.473256e+002
1.274554e+003, 6.484395e+002
1.275036e+003, 6.476396e+002
1.275518e+003, 6.467782e+002
1.276000e+003, 6.470594e+002
1.276482e+003, 6.479420e+002
1.276964e+003, 6.491166e+002
1.277446e+003, 6.503528e+002
1.277929e+003, 6.507391e+002
1.278411e+003, 6.501630e+002
1.278893e+003, 6.499248e+002
1.279375e+003, 6.500782e+002
1.279857e+003, 6.504260e+002
1.280339e+003, 6.509563e+002
1.280821e+003, 6.517733e+002
1.281303e+003, 6.530110e+002
1.281786e+003, 6.542324e+002
1.282268e+003, 6.550417e+002
##END=



