##NAMES=Veszelyite
##RRUFFID=R150144
##IDEAL CHEMISTRY=Cu^2+^_3_PO_4_(OH)_3_&#183;2H_2_O
##LOCALITY=Hisaichi Mine, Nakagawa, Akita Prefecture, Japan
##OWNER=RRUFF
##SOURCE=Leor Goldberg
##DESCRIPTION=A fragment of dark blue crystal
##STATUS=The identification of this mineral has been confirmed by single-crystal X-ray diffraction.
##URL=rruff.info/R150144
8.813672e+001, 3.382439e+002
8.861884e+001, 3.419523e+002
8.910095e+001, 3.459864e+002
8.958307e+001, 3.520399e+002
9.006519e+001, 3.593983e+002
9.054730e+001, 3.664035e+002
9.102942e+001, 3.736673e+002
9.151154e+001, 3.796468e+002
9.199365e+001, 3.821780e+002
9.247577e+001, 3.817988e+002
9.295789e+001, 3.807348e+002
9.344000e+001, 3.804137e+002
9.392212e+001, 3.803120e+002
9.440424e+001, 3.796987e+002
9.488635e+001, 3.786883e+002
9.536847e+001, 3.778985e+002
9.585059e+001, 3.785604e+002
9.633270e+001, 3.806547e+002
9.681482e+001, 3.835968e+002
9.729694e+001, 3.873763e+002
9.777905e+001, 3.919693e+002
9.826117e+001, 3.954974e+002
9.874329e+001, 3.972704e+002
9.922540e+001, 3.974717e+002
9.970752e+001, 3.972356e+002
1.001896e+002, 3.962682e+002
1.006718e+002, 3.954046e+002
1.011539e+002, 3.955879e+002
1.016360e+002, 3.967132e+002
1.021181e+002, 3.991870e+002
1.026002e+002, 4.032235e+002
1.030823e+002, 4.089464e+002
1.035645e+002, 4.153166e+002
1.040466e+002, 4.224182e+002
1.045287e+002, 4.301450e+002
1.050108e+002, 4.384571e+002
1.054929e+002, 4.470978e+002
1.059750e+002, 4.566305e+002
1.064572e+002, 4.673558e+002
1.069393e+002, 4.804885e+002
1.074214e+002, 4.926565e+002
1.079035e+002, 5.034477e+002
1.083856e+002, 5.133444e+002
1.088677e+002, 5.235397e+002
1.093499e+002, 5.355192e+002
1.098320e+002, 5.468836e+002
1.103141e+002, 5.566034e+002
1.107962e+002, 5.645964e+002
1.112783e+002, 5.712713e+002
1.117604e+002, 5.763209e+002
1.122426e+002, 5.799837e+002
1.127247e+002, 5.834583e+002
1.132068e+002, 5.862692e+002
1.136889e+002, 5.893215e+002
1.141710e+002, 5.932109e+002
1.146531e+002, 5.984933e+002
1.151353e+002, 6.041935e+002
1.156174e+002, 6.099927e+002
1.160995e+002, 6.158638e+002
1.165816e+002, 6.224357e+002
1.170637e+002, 6.306101e+002
1.175458e+002, 6.393534e+002
1.180280e+002, 6.476519e+002
1.185101e+002, 6.533297e+002
1.189922e+002, 6.596577e+002
1.194743e+002, 6.685247e+002
1.199564e+002, 6.801976e+002
1.204385e+002, 6.934615e+002
1.209207e+002, 7.079792e+002
1.214028e+002, 7.235702e+002
1.218849e+002, 7.398416e+002
1.223670e+002, 7.580152e+002
1.228491e+002, 7.763820e+002
1.233312e+002, 7.931672e+002
1.238134e+002, 8.082907e+002
1.242955e+002, 8.217133e+002
1.247776e+002, 8.323857e+002
1.252597e+002, 8.409982e+002
1.257418e+002, 8.498782e+002
1.262239e+002, 8.612639e+002
1.267061e+002, 8.738876e+002
1.271882e+002, 8.853295e+002
1.276703e+002, 8.958397e+002
1.281524e+002, 9.041321e+002
1.286345e+002, 9.090174e+002
1.291166e+002, 9.103298e+002
1.295988e+002, 9.070627e+002
1.300809e+002, 8.976921e+002
1.305630e+002, 8.827538e+002
1.310451e+002, 8.642092e+002
1.315272e+002, 8.412014e+002
1.320093e+002, 8.159767e+002
1.324915e+002, 7.929392e+002
1.329736e+002, 7.721024e+002
1.334557e+002, 7.535795e+002
1.339378e+002, 7.379231e+002
1.344199e+002, 7.250607e+002
1.349020e+002, 7.140322e+002
1.353842e+002, 7.045745e+002
1.358663e+002, 6.968848e+002
1.363484e+002, 6.911375e+002
1.368305e+002, 6.874805e+002
1.373126e+002, 6.853954e+002
1.377947e+002, 6.846727e+002
1.382769e+002, 6.855536e+002
1.387590e+002, 6.865062e+002
1.392411e+002, 6.870722e+002
1.397232e+002, 6.872504e+002
1.402053e+002, 6.877211e+002
1.406874e+002, 6.885032e+002
1.411696e+002, 6.896000e+002
1.416517e+002, 6.910978e+002
1.421338e+002, 6.933146e+002
1.426159e+002, 6.953234e+002
1.430980e+002, 6.968879e+002
1.435801e+002, 6.979706e+002
1.440623e+002, 6.988632e+002
1.445444e+002, 6.994196e+002
1.450265e+002, 6.999227e+002
1.455086e+002, 7.007916e+002
1.459907e+002, 7.019258e+002
1.464728e+002, 7.036172e+002
1.469550e+002, 7.059850e+002
1.474371e+002, 7.090543e+002
1.479192e+002, 7.127476e+002
1.484013e+002, 7.171397e+002
1.488834e+002, 7.221250e+002
1.493655e+002, 7.275810e+002
1.498477e+002, 7.342420e+002
1.503298e+002, 7.406992e+002
1.508119e+002, 7.464844e+002
1.512940e+002, 7.526472e+002
1.517761e+002, 7.566145e+002
1.522583e+002, 7.575092e+002
1.527404e+002, 7.560092e+002
1.532225e+002, 7.539922e+002
1.537046e+002, 7.525986e+002
1.541867e+002, 7.500061e+002
1.546688e+002, 7.453348e+002
1.551510e+002, 7.360361e+002
1.556331e+002, 7.275779e+002
1.561152e+002, 7.212165e+002
1.565973e+002, 7.165013e+002
1.570794e+002, 7.117998e+002
1.575615e+002, 7.062894e+002
1.580437e+002, 7.009276e+002
1.585258e+002, 6.962907e+002
1.590079e+002, 6.927639e+002
1.594900e+002, 6.897051e+002
1.599721e+002, 6.869529e+002
1.604542e+002, 6.845218e+002
1.609364e+002, 6.824947e+002
1.614185e+002, 6.810770e+002
1.619006e+002, 6.799906e+002
1.623827e+002, 6.790110e+002
1.628648e+002, 6.780562e+002
1.633469e+002, 6.772048e+002
1.638291e+002, 6.767288e+002
1.643112e+002, 6.765538e+002
1.647933e+002, 6.758937e+002
1.652754e+002, 6.735676e+002
1.657575e+002, 6.708312e+002
1.662396e+002, 6.690046e+002
1.667218e+002, 6.691785e+002
1.672039e+002, 6.699384e+002
1.676860e+002, 6.703643e+002
1.681681e+002, 6.704586e+002
1.686502e+002, 6.707844e+002
1.691323e+002, 6.718819e+002
1.696145e+002, 6.733906e+002
1.700966e+002, 6.748130e+002
1.705787e+002, 6.757704e+002
1.710608e+002, 6.766689e+002
1.715429e+002, 6.779688e+002
1.720250e+002, 6.797134e+002
1.725072e+002, 6.813393e+002
1.729893e+002, 6.827981e+002
1.734714e+002, 6.838524e+002
1.739535e+002, 6.840600e+002
1.744356e+002, 6.827283e+002
1.749177e+002, 6.806672e+002
1.753999e+002, 6.787756e+002
1.758820e+002, 6.770773e+002
1.763641e+002, 6.754547e+002
1.768462e+002, 6.733594e+002
1.773283e+002, 6.711522e+002
1.778104e+002, 6.697683e+002
1.782926e+002, 6.699667e+002
1.787747e+002, 6.711829e+002
1.792568e+002, 6.723325e+002
1.797389e+002, 6.732335e+002
1.802210e+002, 6.748293e+002
1.807031e+002, 6.785016e+002
1.811853e+002, 6.838519e+002
1.816674e+002, 6.893828e+002
1.821495e+002, 6.941757e+002
1.826316e+002, 6.986011e+002
1.831137e+002, 7.034714e+002
1.835958e+002, 7.089621e+002
1.840780e+002, 7.145729e+002
1.845601e+002, 7.199693e+002
1.850422e+002, 7.250368e+002
1.855243e+002, 7.296194e+002
1.860064e+002, 7.336628e+002
1.864885e+002, 7.371590e+002
1.869707e+002, 7.398995e+002
1.874528e+002, 7.419030e+002
1.879349e+002, 7.431788e+002
1.884170e+002, 7.440095e+002
1.888991e+002, 7.443478e+002
1.893812e+002, 7.433499e+002
1.898634e+002, 7.401853e+002
1.903455e+002, 7.351096e+002
1.908276e+002, 7.296066e+002
1.913097e+002, 7.235912e+002
1.917918e+002, 7.173978e+002
1.922739e+002, 7.115394e+002
1.927561e+002, 7.059362e+002
1.932382e+002, 7.006097e+002
1.937203e+002, 6.956552e+002
1.942024e+002, 6.910465e+002
1.946845e+002, 6.861020e+002
1.951666e+002, 6.807135e+002
1.956488e+002, 6.751240e+002
1.961309e+002, 6.698116e+002
1.966130e+002, 6.647239e+002
1.970951e+002, 6.598201e+002
1.975772e+002, 6.551682e+002
1.980593e+002, 6.507791e+002
1.985415e+002, 6.458280e+002
1.990236e+002, 6.399650e+002
1.995057e+002, 6.338772e+002
1.999878e+002, 6.295450e+002
2.004699e+002, 6.273259e+002
2.009520e+002, 6.250750e+002
2.014342e+002, 6.213464e+002
2.019163e+002, 6.159474e+002
2.023984e+002, 6.112589e+002
2.028805e+002, 6.075399e+002
2.033626e+002, 6.045208e+002
2.038447e+002, 6.014601e+002
2.043269e+002, 5.982214e+002
2.048090e+002, 5.954161e+002
2.052911e+002, 5.937001e+002
2.057732e+002, 5.933396e+002
2.062553e+002, 5.921182e+002
2.067374e+002, 5.895977e+002
2.072196e+002, 5.863356e+002
2.077017e+002, 5.838897e+002
2.081838e+002, 5.824521e+002
2.086659e+002, 5.813012e+002
2.091480e+002, 5.800994e+002
2.096301e+002, 5.788497e+002
2.101123e+002, 5.774540e+002
2.105944e+002, 5.757628e+002
2.110765e+002, 5.739884e+002
2.115586e+002, 5.727443e+002
2.120407e+002, 5.721068e+002
2.125228e+002, 5.718279e+002
2.130050e+002, 5.718717e+002
2.134871e+002, 5.723966e+002
2.139692e+002, 5.726358e+002
2.144513e+002, 5.724686e+002
2.149334e+002, 5.720126e+002
2.154155e+002, 5.715947e+002
2.158977e+002, 5.711775e+002
2.163798e+002, 5.708532e+002
2.168619e+002, 5.706247e+002
2.173440e+002, 5.703844e+002
2.178261e+002, 5.705934e+002
2.183082e+002, 5.714666e+002
2.187904e+002, 5.727335e+002
2.192725e+002, 5.735565e+002
2.197546e+002, 5.737768e+002
2.202367e+002, 5.738207e+002
2.207188e+002, 5.738516e+002
2.212009e+002, 5.737571e+002
2.216831e+002, 5.739833e+002
2.221652e+002, 5.746121e+002
2.226473e+002, 5.755645e+002
2.231294e+002, 5.765735e+002
2.236115e+002, 5.776174e+002
2.240936e+002, 5.787951e+002
2.245758e+002, 5.801957e+002
2.250579e+002, 5.819199e+002
2.255400e+002, 5.836195e+002
2.260221e+002, 5.852405e+002
2.265042e+002, 5.868605e+002
2.269863e+002, 5.886652e+002
2.274685e+002, 5.908524e+002
2.279506e+002, 5.929506e+002
2.284327e+002, 5.946533e+002
2.289148e+002, 5.955164e+002
2.293969e+002, 5.970467e+002
2.298790e+002, 5.993387e+002
2.303612e+002, 6.022682e+002
2.308433e+002, 6.055179e+002
2.313254e+002, 6.090932e+002
2.318075e+002, 6.130206e+002
2.322896e+002, 6.173358e+002
2.327717e+002, 6.221059e+002
2.332539e+002, 6.270932e+002
2.337360e+002, 6.323868e+002
2.342181e+002, 6.377680e+002
2.347002e+002, 6.428547e+002
2.351823e+002, 6.479247e+002
2.356644e+002, 6.521930e+002
2.361466e+002, 6.552228e+002
2.366287e+002, 6.564830e+002
2.371108e+002, 6.579893e+002
2.375929e+002, 6.602203e+002
2.380750e+002, 6.624752e+002
2.385571e+002, 6.631985e+002
2.390393e+002, 6.616625e+002
2.395214e+002, 6.597540e+002
2.400035e+002, 6.581282e+002
2.404856e+002, 6.568449e+002
2.409677e+002, 6.556829e+002
2.414498e+002, 6.548647e+002
2.419320e+002, 6.540766e+002
2.424141e+002, 6.527423e+002
2.428962e+002, 6.508062e+002
2.433783e+002, 6.484496e+002
2.438604e+002, 6.457438e+002
2.443425e+002, 6.427200e+002
2.448247e+002, 6.392076e+002
2.453068e+002, 6.347889e+002
2.457889e+002, 6.301545e+002
2.462710e+002, 6.263815e+002
2.467531e+002, 6.239565e+002
2.472352e+002, 6.215408e+002
2.477174e+002, 6.186505e+002
2.481995e+002, 6.151423e+002
2.486816e+002, 6.119603e+002
2.491637e+002, 6.090494e+002
2.496458e+002, 6.064821e+002
2.501279e+002, 6.044391e+002
2.506101e+002, 6.031188e+002
2.510922e+002, 6.018942e+002
2.515743e+002, 6.005340e+002
2.520564e+002, 5.989434e+002
2.525385e+002, 5.979006e+002
2.530206e+002, 5.976288e+002
2.535028e+002, 5.976967e+002
2.539849e+002, 5.975184e+002
2.544670e+002, 5.967427e+002
2.549491e+002, 5.964653e+002
2.554312e+002, 5.969979e+002
2.559133e+002, 5.983672e+002
2.563955e+002, 6.000540e+002
2.568776e+002, 6.023634e+002
2.573597e+002, 6.046564e+002
2.578418e+002, 6.061940e+002
2.583239e+002, 6.066398e+002
2.588061e+002, 6.071594e+002
2.592882e+002, 6.080807e+002
2.597703e+002, 6.093934e+002
2.602524e+002, 6.103244e+002
2.607345e+002, 6.110339e+002
2.612166e+002, 6.111526e+002
2.616988e+002, 6.101758e+002
2.621809e+002, 6.076558e+002
2.626630e+002, 6.054024e+002
2.631451e+002, 6.038672e+002
2.636272e+002, 6.029299e+002
2.641093e+002, 6.015632e+002
2.645915e+002, 5.995695e+002
2.650736e+002, 5.974879e+002
2.655557e+002, 5.957108e+002
2.660378e+002, 5.943405e+002
2.665199e+002, 5.930151e+002
2.670020e+002, 5.915842e+002
2.674842e+002, 5.901635e+002
2.679663e+002, 5.894705e+002
2.684484e+002, 5.896920e+002
2.689305e+002, 5.902015e+002
2.694126e+002, 5.906393e+002
2.698947e+002, 5.910508e+002
2.703769e+002, 5.911557e+002
2.708590e+002, 5.908240e+002
2.713411e+002, 5.902134e+002
2.718232e+002, 5.898337e+002
2.723053e+002, 5.897081e+002
2.727874e+002, 5.897335e+002
2.732696e+002, 5.898861e+002
2.737517e+002, 5.901921e+002
2.742338e+002, 5.904221e+002
2.747159e+002, 5.905067e+002
2.751980e+002, 5.905667e+002
2.756801e+002, 5.910502e+002
2.761623e+002, 5.921500e+002
2.766444e+002, 5.928339e+002
2.771265e+002, 5.922557e+002
2.776086e+002, 5.902551e+002
2.780907e+002, 5.893574e+002
2.785728e+002, 5.900105e+002
2.790550e+002, 5.911605e+002
2.795371e+002, 5.907443e+002
2.800192e+002, 5.885574e+002
2.805013e+002, 5.864675e+002
2.809834e+002, 5.853920e+002
2.814655e+002, 5.852996e+002
2.819477e+002, 5.850584e+002
2.824298e+002, 5.846816e+002
2.829119e+002, 5.841085e+002
2.833940e+002, 5.832040e+002
2.838761e+002, 5.819548e+002
2.843582e+002, 5.806201e+002
2.848404e+002, 5.793027e+002
2.853225e+002, 5.779757e+002
2.858046e+002, 5.764024e+002
2.862867e+002, 5.745189e+002
2.867688e+002, 5.727416e+002
2.872509e+002, 5.717176e+002
2.877331e+002, 5.713844e+002
2.882152e+002, 5.708293e+002
2.886973e+002, 5.696456e+002
2.891794e+002, 5.680704e+002
2.896615e+002, 5.669796e+002
2.901436e+002, 5.664128e+002
2.906258e+002, 5.658390e+002
2.911079e+002, 5.646005e+002
2.915900e+002, 5.628538e+002
2.920721e+002, 5.614236e+002
2.925542e+002, 5.606080e+002
2.930363e+002, 5.601762e+002
2.935185e+002, 5.596437e+002
2.940006e+002, 5.590135e+002
2.944827e+002, 5.585204e+002
2.949648e+002, 5.585692e+002
2.954469e+002, 5.589170e+002
2.959290e+002, 5.587276e+002
2.964112e+002, 5.576370e+002
2.968933e+002, 5.562899e+002
2.973754e+002, 5.556210e+002
2.978575e+002, 5.555824e+002
2.983396e+002, 5.558992e+002
2.988217e+002, 5.565739e+002
2.993039e+002, 5.574495e+002
2.997860e+002, 5.582623e+002
3.002681e+002, 5.590391e+002
3.007502e+002, 5.595565e+002
3.012323e+002, 5.592643e+002
3.017144e+002, 5.584031e+002
3.021966e+002, 5.578259e+002
3.026787e+002, 5.583271e+002
3.031608e+002, 5.592405e+002
3.036429e+002, 5.596041e+002
3.041250e+002, 5.592813e+002
3.046071e+002, 5.588411e+002
3.050893e+002, 5.586564e+002
3.055714e+002, 5.587355e+002
3.060535e+002, 5.590981e+002
3.065356e+002, 5.602978e+002
3.070177e+002, 5.614657e+002
3.074998e+002, 5.616832e+002
3.079820e+002, 5.609276e+002
3.084641e+002, 5.598196e+002
3.089462e+002, 5.581746e+002
3.094283e+002, 5.566006e+002
3.099104e+002, 5.559550e+002
3.103925e+002, 5.574941e+002
3.108747e+002, 5.593379e+002
3.113568e+002, 5.603214e+002
3.118389e+002, 5.604937e+002
3.123210e+002, 5.601879e+002
3.128031e+002, 5.589927e+002
3.132852e+002, 5.576758e+002
3.137674e+002, 5.570087e+002
3.142495e+002, 5.577538e+002
3.147316e+002, 5.584764e+002
3.152137e+002, 5.581456e+002
3.156958e+002, 5.571326e+002
3.161779e+002, 5.566907e+002
3.166601e+002, 5.579825e+002
3.171422e+002, 5.595995e+002
3.176243e+002, 5.605827e+002
3.181064e+002, 5.604784e+002
3.185885e+002, 5.602877e+002
3.190706e+002, 5.601536e+002
3.195528e+002, 5.601660e+002
3.200349e+002, 5.605026e+002
3.205170e+002, 5.616246e+002
3.209991e+002, 5.627390e+002
3.214812e+002, 5.634637e+002
3.219633e+002, 5.636484e+002
3.224455e+002, 5.638798e+002
3.229276e+002, 5.645258e+002
3.234097e+002, 5.652060e+002
3.238918e+002, 5.654540e+002
3.243739e+002, 5.647851e+002
3.248560e+002, 5.640925e+002
3.253382e+002, 5.634509e+002
3.258203e+002, 5.628123e+002
3.263024e+002, 5.628079e+002
3.267845e+002, 5.644403e+002
3.272666e+002, 5.662099e+002
3.277487e+002, 5.669179e+002
3.282309e+002, 5.650681e+002
3.287130e+002, 5.639041e+002
3.291951e+002, 5.640426e+002
3.296772e+002, 5.653281e+002
3.301593e+002, 5.661951e+002
3.306414e+002, 5.663623e+002
3.311236e+002, 5.663631e+002
3.316057e+002, 5.665064e+002
3.320878e+002, 5.670849e+002
3.325699e+002, 5.672369e+002
3.330520e+002, 5.666921e+002
3.335341e+002, 5.657368e+002
3.340163e+002, 5.652054e+002
3.344984e+002, 5.653383e+002
3.349805e+002, 5.654907e+002
3.354626e+002, 5.653564e+002
3.359447e+002, 5.647986e+002
3.364268e+002, 5.645214e+002
3.369090e+002, 5.646635e+002
3.373911e+002, 5.649499e+002
3.378732e+002, 5.648738e+002
3.383553e+002, 5.642819e+002
3.388374e+002, 5.638857e+002
3.393195e+002, 5.639327e+002
3.398017e+002, 5.644135e+002
3.402838e+002, 5.650804e+002
3.407659e+002, 5.660831e+002
3.412480e+002, 5.669108e+002
3.417301e+002, 5.669249e+002
3.422122e+002, 5.660684e+002
3.426944e+002, 5.652108e+002
3.431765e+002, 5.644534e+002
3.436586e+002, 5.638690e+002
3.441407e+002, 5.637889e+002
3.446228e+002, 5.642335e+002
3.451049e+002, 5.648907e+002
3.455871e+002, 5.654636e+002
3.460692e+002, 5.660094e+002
3.465513e+002, 5.669741e+002
3.470334e+002, 5.685947e+002
3.475155e+002, 5.702875e+002
3.479977e+002, 5.708733e+002
3.484798e+002, 5.704795e+002
3.489619e+002, 5.701267e+002
3.494440e+002, 5.703569e+002
3.499261e+002, 5.710589e+002
3.504082e+002, 5.719423e+002
3.508904e+002, 5.729629e+002
3.513725e+002, 5.743384e+002
3.518546e+002, 5.765389e+002
3.523367e+002, 5.793120e+002
3.528188e+002, 5.820129e+002
3.533009e+002, 5.848712e+002
3.537831e+002, 5.872426e+002
3.542652e+002, 5.878907e+002
3.547473e+002, 5.869049e+002
3.552294e+002, 5.861744e+002
3.557115e+002, 5.873221e+002
3.561936e+002, 5.894736e+002
3.566758e+002, 5.914982e+002
3.571579e+002, 5.931238e+002
3.576400e+002, 5.944891e+002
3.581221e+002, 5.954412e+002
3.586042e+002, 5.961456e+002
3.590863e+002, 5.972271e+002
3.595685e+002, 5.992679e+002
3.600506e+002, 6.016422e+002
3.605327e+002, 6.039730e+002
3.610148e+002, 6.063436e+002
3.614969e+002, 6.082760e+002
3.619790e+002, 6.092106e+002
3.624612e+002, 6.096238e+002
3.629433e+002, 6.103383e+002
3.634254e+002, 6.115794e+002
3.639075e+002, 6.131799e+002
3.643896e+002, 6.152777e+002
3.648717e+002, 6.179971e+002
3.653539e+002, 6.202142e+002
3.658360e+002, 6.217999e+002
3.663181e+002, 6.227207e+002
3.668002e+002, 6.229920e+002
3.672823e+002, 6.212873e+002
3.677644e+002, 6.203798e+002
3.682466e+002, 6.209326e+002
3.687287e+002, 6.228394e+002
3.692108e+002, 6.246834e+002
3.696929e+002, 6.262689e+002
3.701750e+002, 6.279856e+002
3.706571e+002, 6.300603e+002
3.711393e+002, 6.331041e+002
3.716214e+002, 6.354570e+002
3.721035e+002, 6.368422e+002
3.725856e+002, 6.376446e+002
3.730677e+002, 6.386877e+002
3.735498e+002, 6.400008e+002
3.740320e+002, 6.415422e+002
3.745141e+002, 6.434881e+002
3.749962e+002, 6.459879e+002
3.754783e+002, 6.474332e+002
3.759604e+002, 6.474863e+002
3.764425e+002, 6.470178e+002
3.769247e+002, 6.472007e+002
3.774068e+002, 6.482288e+002
3.778889e+002, 6.486588e+002
3.783710e+002, 6.479729e+002
3.788531e+002, 6.464429e+002
3.793352e+002, 6.452442e+002
3.798174e+002, 6.444523e+002
3.802995e+002, 6.435380e+002
3.807816e+002, 6.419830e+002
3.812637e+002, 6.398617e+002
3.817458e+002, 6.378887e+002
3.822279e+002, 6.361096e+002
3.827101e+002, 6.345769e+002
3.831922e+002, 6.334591e+002
3.836743e+002, 6.326897e+002
3.841564e+002, 6.318752e+002
3.846385e+002, 6.306732e+002
3.851206e+002, 6.292958e+002
3.856028e+002, 6.282451e+002
3.860849e+002, 6.275764e+002
3.865670e+002, 6.268436e+002
3.870491e+002, 6.254183e+002
3.875312e+002, 6.236313e+002
3.880133e+002, 6.221438e+002
3.884955e+002, 6.215774e+002
3.889776e+002, 6.210884e+002
3.894597e+002, 6.198591e+002
3.899418e+002, 6.179752e+002
3.904239e+002, 6.159656e+002
3.909060e+002, 6.139420e+002
3.913882e+002, 6.120413e+002
3.918703e+002, 6.104442e+002
3.923524e+002, 6.093505e+002
3.928345e+002, 6.081758e+002
3.933166e+002, 6.064128e+002
3.937987e+002, 6.043702e+002
3.942809e+002, 6.026949e+002
3.947630e+002, 6.019993e+002
3.952451e+002, 6.013554e+002
3.957272e+002, 6.003361e+002
3.962093e+002, 5.988566e+002
3.966914e+002, 5.973386e+002
3.971736e+002, 5.957058e+002
3.976557e+002, 5.941393e+002
3.981378e+002, 5.927991e+002
3.986199e+002, 5.917201e+002
3.991020e+002, 5.908604e+002
3.995841e+002, 5.902972e+002
4.000663e+002, 5.899818e+002
4.005484e+002, 5.896107e+002
4.010305e+002, 5.892835e+002
4.015126e+002, 5.887968e+002
4.019947e+002, 5.880623e+002
4.024768e+002, 5.871166e+002
4.029590e+002, 5.858601e+002
4.034411e+002, 5.842031e+002
4.039232e+002, 5.823192e+002
4.044053e+002, 5.805331e+002
4.048874e+002, 5.789256e+002
4.053695e+002, 5.771686e+002
4.058517e+002, 5.749795e+002
4.063338e+002, 5.724489e+002
4.068159e+002, 5.707068e+002
4.072980e+002, 5.699042e+002
4.077801e+002, 5.693724e+002
4.082622e+002, 5.685212e+002
4.087444e+002, 5.673555e+002
4.092265e+002, 5.660853e+002
4.097086e+002, 5.646971e+002
4.101907e+002, 5.632709e+002
4.106728e+002, 5.620196e+002
4.111549e+002, 5.609107e+002
4.116371e+002, 5.597036e+002
4.121192e+002, 5.578464e+002
4.126013e+002, 5.558414e+002
4.130834e+002, 5.550401e+002
4.135655e+002, 5.556836e+002
4.140476e+002, 5.564707e+002
4.145298e+002, 5.556912e+002
4.150119e+002, 5.541534e+002
4.154940e+002, 5.534850e+002
4.159761e+002, 5.556317e+002
4.164582e+002, 5.579517e+002
4.169403e+002, 5.578763e+002
4.174225e+002, 5.557375e+002
4.179046e+002, 5.535079e+002
4.183867e+002, 5.522878e+002
4.188688e+002, 5.515215e+002
4.193509e+002, 5.507734e+002
4.198330e+002, 5.498888e+002
4.203152e+002, 5.491581e+002
4.207973e+002, 5.487665e+002
4.212794e+002, 5.485960e+002
4.217615e+002, 5.484250e+002
4.222436e+002, 5.479215e+002
4.227257e+002, 5.476757e+002
4.232079e+002, 5.480488e+002
4.236900e+002, 5.491750e+002
4.241721e+002, 5.499319e+002
4.246542e+002, 5.500873e+002
4.251363e+002, 5.499346e+002
4.256184e+002, 5.496481e+002
4.261006e+002, 5.487382e+002
4.265827e+002, 5.484630e+002
4.270648e+002, 5.491434e+002
4.275469e+002, 5.505059e+002
4.280290e+002, 5.516005e+002
4.285111e+002, 5.523455e+002
4.289933e+002, 5.529531e+002
4.294754e+002, 5.534742e+002
4.299575e+002, 5.538842e+002
4.304396e+002, 5.543754e+002
4.309217e+002, 5.550051e+002
4.314038e+002, 5.555836e+002
4.318860e+002, 5.557658e+002
4.323681e+002, 5.555313e+002
4.328502e+002, 5.555546e+002
4.333323e+002, 5.562527e+002
4.338144e+002, 5.571794e+002
4.342965e+002, 5.568069e+002
4.347787e+002, 5.551682e+002
4.352608e+002, 5.537892e+002
4.357429e+002, 5.540954e+002
4.362250e+002, 5.554767e+002
4.367071e+002, 5.563804e+002
4.371892e+002, 5.565671e+002
4.376714e+002, 5.565419e+002
4.381535e+002, 5.568870e+002
4.386356e+002, 5.574333e+002
4.391177e+002, 5.578011e+002
4.395998e+002, 5.575964e+002
4.400819e+002, 5.572929e+002
4.405641e+002, 5.572307e+002
4.410462e+002, 5.574067e+002
4.415283e+002, 5.577921e+002
4.420104e+002, 5.586932e+002
4.424925e+002, 5.596033e+002
4.429746e+002, 5.599818e+002
4.434568e+002, 5.590526e+002
4.439389e+002, 5.587827e+002
4.444210e+002, 5.605968e+002
4.449031e+002, 5.633983e+002
4.453852e+002, 5.651017e+002
4.458673e+002, 5.643024e+002
4.463495e+002, 5.632840e+002
4.468316e+002, 5.627233e+002
4.473137e+002, 5.627170e+002
4.477958e+002, 5.626483e+002
4.482779e+002, 5.624074e+002
4.487600e+002, 5.622115e+002
4.492422e+002, 5.622278e+002
4.497243e+002, 5.625394e+002
4.502064e+002, 5.628851e+002
4.506885e+002, 5.631445e+002
4.511706e+002, 5.634763e+002
4.516527e+002, 5.643822e+002
4.521349e+002, 5.660216e+002
4.526170e+002, 5.676749e+002
4.530991e+002, 5.689674e+002
4.535812e+002, 5.699294e+002
4.540633e+002, 5.710305e+002
4.545454e+002, 5.722780e+002
4.550276e+002, 5.736522e+002
4.555097e+002, 5.750731e+002
4.559918e+002, 5.765765e+002
4.564739e+002, 5.783054e+002
4.569560e+002, 5.803231e+002
4.574381e+002, 5.825698e+002
4.579203e+002, 5.850641e+002
4.584024e+002, 5.877441e+002
4.588845e+002, 5.903895e+002
4.593666e+002, 5.929734e+002
4.598488e+002, 5.953791e+002
4.603309e+002, 5.971342e+002
4.608130e+002, 5.980992e+002
4.612951e+002, 5.996823e+002
4.617772e+002, 6.033518e+002
4.622593e+002, 6.079980e+002
4.627415e+002, 6.122519e+002
4.632236e+002, 6.152281e+002
4.637057e+002, 6.181877e+002
4.641878e+002, 6.217230e+002
4.646699e+002, 6.256360e+002
4.651520e+002, 6.293185e+002
4.656342e+002, 6.321755e+002
4.661163e+002, 6.350447e+002
4.665984e+002, 6.383700e+002
4.670805e+002, 6.424050e+002
4.675626e+002, 6.462101e+002
4.680447e+002, 6.498975e+002
4.685269e+002, 6.532576e+002
4.690090e+002, 6.560798e+002
4.694911e+002, 6.580801e+002
4.699732e+002, 6.600430e+002
4.704553e+002, 6.620778e+002
4.709374e+002, 6.641604e+002
4.714196e+002, 6.663080e+002
4.719017e+002, 6.685974e+002
4.723838e+002, 6.706483e+002
4.728659e+002, 6.721768e+002
4.733480e+002, 6.731815e+002
4.738301e+002, 6.741935e+002
4.743123e+002, 6.752234e+002
4.747944e+002, 6.762470e+002
4.752765e+002, 6.770334e+002
4.757586e+002, 6.777062e+002
4.762407e+002, 6.790036e+002
4.767228e+002, 6.815251e+002
4.772050e+002, 6.843749e+002
4.776871e+002, 6.859625e+002
4.781692e+002, 6.865322e+002
4.786513e+002, 6.872131e+002
4.791334e+002, 6.888729e+002
4.796155e+002, 6.909414e+002
4.800977e+002, 6.928201e+002
4.805798e+002, 6.944301e+002
4.810619e+002, 6.960105e+002
4.815440e+002, 6.975273e+002
4.820261e+002, 6.991477e+002
4.825082e+002, 7.010784e+002
4.829904e+002, 7.047081e+002
4.834725e+002, 7.072703e+002
4.839546e+002, 7.075128e+002
4.844367e+002, 7.058527e+002
4.849188e+002, 7.041608e+002
4.854009e+002, 7.027410e+002
4.858831e+002, 7.012888e+002
4.863652e+002, 6.997377e+002
4.868473e+002, 6.982370e+002
4.873294e+002, 6.960758e+002
4.878115e+002, 6.929374e+002
4.882936e+002, 6.894093e+002
4.887758e+002, 6.860211e+002
4.892579e+002, 6.827440e+002
4.897400e+002, 6.796484e+002
4.902221e+002, 6.768259e+002
4.907042e+002, 6.741293e+002
4.911863e+002, 6.712605e+002
4.916685e+002, 6.682180e+002
4.921506e+002, 6.649136e+002
4.926327e+002, 6.611404e+002
4.931148e+002, 6.570182e+002
4.935969e+002, 6.534346e+002
4.940790e+002, 6.504050e+002
4.945612e+002, 6.475036e+002
4.950433e+002, 6.441243e+002
4.955254e+002, 6.405593e+002
4.960075e+002, 6.374209e+002
4.964896e+002, 6.352486e+002
4.969717e+002, 6.330313e+002
4.974539e+002, 6.294780e+002
4.979360e+002, 6.251091e+002
4.984181e+002, 6.214160e+002
4.989002e+002, 6.196381e+002
4.993823e+002, 6.182881e+002
4.998644e+002, 6.164735e+002
5.003466e+002, 6.140762e+002
5.008287e+002, 6.115670e+002
5.013108e+002, 6.086725e+002
5.017929e+002, 6.059427e+002
5.022750e+002, 6.038035e+002
5.027571e+002, 6.031387e+002
5.032393e+002, 6.019477e+002
5.037214e+002, 5.997939e+002
5.042035e+002, 5.971480e+002
5.046856e+002, 5.950021e+002
5.051677e+002, 5.936799e+002
5.056498e+002, 5.922756e+002
5.061320e+002, 5.904252e+002
5.066141e+002, 5.881504e+002
5.070962e+002, 5.863795e+002
5.075783e+002, 5.852263e+002
5.080604e+002, 5.842320e+002
5.085425e+002, 5.831257e+002
5.090247e+002, 5.819006e+002
5.095068e+002, 5.801946e+002
5.099889e+002, 5.777450e+002
5.104710e+002, 5.755005e+002
5.109531e+002, 5.751914e+002
5.114352e+002, 5.763329e+002
5.119174e+002, 5.771454e+002
5.123995e+002, 5.768196e+002
5.128816e+002, 5.757947e+002
5.133637e+002, 5.741395e+002
5.138458e+002, 5.720266e+002
5.143279e+002, 5.705240e+002
5.148101e+002, 5.706337e+002
5.152922e+002, 5.713671e+002
5.157743e+002, 5.719385e+002
5.162564e+002, 5.721617e+002
5.167385e+002, 5.724188e+002
5.172206e+002, 5.729788e+002
5.177028e+002, 5.735791e+002
5.181849e+002, 5.739201e+002
5.186670e+002, 5.739252e+002
5.191491e+002, 5.736940e+002
5.196312e+002, 5.728877e+002
5.201133e+002, 5.717997e+002
5.205955e+002, 5.717482e+002
5.210776e+002, 5.734523e+002
5.215597e+002, 5.750143e+002
5.220418e+002, 5.755724e+002
5.225239e+002, 5.750264e+002
5.230060e+002, 5.745450e+002
5.234882e+002, 5.739615e+002
5.239703e+002, 5.739174e+002
5.244524e+002, 5.755568e+002
5.249345e+002, 5.787128e+002
5.254166e+002, 5.809802e+002
5.258987e+002, 5.817516e+002
5.263809e+002, 5.817833e+002
5.268630e+002, 5.822183e+002
5.273451e+002, 5.829523e+002
5.278272e+002, 5.835651e+002
5.283093e+002, 5.832659e+002
5.287914e+002, 5.830655e+002
5.292736e+002, 5.844360e+002
5.297557e+002, 5.872718e+002
5.302378e+002, 5.897363e+002
5.307199e+002, 5.901777e+002
5.312020e+002, 5.901726e+002
5.316841e+002, 5.911473e+002
5.321663e+002, 5.940967e+002
5.326484e+002, 5.964052e+002
5.331305e+002, 5.969920e+002
5.336126e+002, 5.967010e+002
5.340947e+002, 5.967600e+002
5.345768e+002, 5.978682e+002
5.350590e+002, 5.986024e+002
5.355411e+002, 5.985947e+002
5.360232e+002, 5.979991e+002
5.365053e+002, 5.977582e+002
5.369874e+002, 5.981017e+002
5.374695e+002, 5.983261e+002
5.379517e+002, 5.980651e+002
5.384338e+002, 5.973023e+002
5.389159e+002, 5.963808e+002
5.393980e+002, 5.952684e+002
5.398801e+002, 5.941347e+002
5.403622e+002, 5.931911e+002
5.408444e+002, 5.924091e+002
5.413265e+002, 5.916418e+002
5.418086e+002, 5.908765e+002
5.422907e+002, 5.900406e+002
5.427728e+002, 5.888321e+002
5.432549e+002, 5.874335e+002
5.437371e+002, 5.864096e+002
5.442192e+002, 5.865480e+002
5.447013e+002, 5.867903e+002
5.451834e+002, 5.862339e+002
5.456655e+002, 5.849043e+002
5.461476e+002, 5.836395e+002
5.466298e+002, 5.828384e+002
5.471119e+002, 5.821976e+002
5.475940e+002, 5.814928e+002
5.480761e+002, 5.805007e+002
5.485582e+002, 5.798663e+002
5.490403e+002, 5.799753e+002
5.495225e+002, 5.802972e+002
5.500046e+002, 5.801723e+002
5.504867e+002, 5.793124e+002
5.509688e+002, 5.785740e+002
5.514509e+002, 5.780529e+002
5.519330e+002, 5.777629e+002
5.524152e+002, 5.778870e+002
5.528973e+002, 5.785192e+002
5.533794e+002, 5.789626e+002
5.538615e+002, 5.789202e+002
5.543436e+002, 5.783908e+002
5.548257e+002, 5.772895e+002
5.553079e+002, 5.756026e+002
5.557900e+002, 5.736864e+002
5.562721e+002, 5.719078e+002
5.567542e+002, 5.701417e+002
5.572363e+002, 5.681703e+002
5.577184e+002, 5.659373e+002
5.582006e+002, 5.635378e+002
5.586827e+002, 5.607960e+002
5.591648e+002, 5.579948e+002
5.596469e+002, 5.555501e+002
5.601290e+002, 5.540435e+002
5.606111e+002, 5.525397e+002
5.610933e+002, 5.505858e+002
5.615754e+002, 5.482672e+002
5.620575e+002, 5.462338e+002
5.625396e+002, 5.443146e+002
5.630217e+002, 5.429551e+002
5.635038e+002, 5.424990e+002
5.639860e+002, 5.432899e+002
5.644681e+002, 5.433066e+002
5.649502e+002, 5.422888e+002
5.654323e+002, 5.408989e+002
5.659144e+002, 5.396978e+002
5.663965e+002, 5.386653e+002
5.668787e+002, 5.380524e+002
5.673608e+002, 5.380311e+002
5.678429e+002, 5.381889e+002
5.683250e+002, 5.376187e+002
5.688071e+002, 5.364924e+002
5.692892e+002, 5.357800e+002
5.697714e+002, 5.363583e+002
5.702535e+002, 5.373022e+002
5.707356e+002, 5.372198e+002
5.712177e+002, 5.362692e+002
5.716998e+002, 5.353925e+002
5.721819e+002, 5.350608e+002
5.726641e+002, 5.350571e+002
5.731462e+002, 5.352650e+002
5.736283e+002, 5.357098e+002
5.741104e+002, 5.361176e+002
5.745925e+002, 5.367388e+002
5.750746e+002, 5.371055e+002
5.755568e+002, 5.367737e+002
5.760389e+002, 5.345408e+002
5.765210e+002, 5.332863e+002
5.770031e+002, 5.336302e+002
5.774852e+002, 5.347984e+002
5.779673e+002, 5.351020e+002
5.784495e+002, 5.341877e+002
5.789316e+002, 5.335848e+002
5.794137e+002, 5.339200e+002
5.798958e+002, 5.349120e+002
5.803779e+002, 5.353599e+002
5.808600e+002, 5.352530e+002
5.813422e+002, 5.348970e+002
5.818243e+002, 5.342245e+002
5.823064e+002, 5.335002e+002
5.827885e+002, 5.334702e+002
5.832706e+002, 5.342281e+002
5.837527e+002, 5.350343e+002
5.842349e+002, 5.352699e+002
5.847170e+002, 5.352053e+002
5.851991e+002, 5.351767e+002
5.856812e+002, 5.353016e+002
5.861633e+002, 5.354077e+002
5.866454e+002, 5.354312e+002
5.871276e+002, 5.353765e+002
5.876097e+002, 5.352581e+002
5.880918e+002, 5.347838e+002
5.885739e+002, 5.345756e+002
5.890560e+002, 5.349107e+002
5.895381e+002, 5.356824e+002
5.900203e+002, 5.360989e+002
5.905024e+002, 5.360438e+002
5.909845e+002, 5.358746e+002
5.914666e+002, 5.357155e+002
5.919487e+002, 5.355690e+002
5.924308e+002, 5.356823e+002
5.929130e+002, 5.361068e+002
5.933951e+002, 5.365691e+002
5.938772e+002, 5.367641e+002
5.943593e+002, 5.367752e+002
5.948414e+002, 5.368674e+002
5.953235e+002, 5.371022e+002
5.958057e+002, 5.373843e+002
5.962878e+002, 5.375582e+002
5.967699e+002, 5.377153e+002
5.972520e+002, 5.380228e+002
5.977341e+002, 5.389390e+002
5.982162e+002, 5.396362e+002
5.986984e+002, 5.392172e+002
5.991805e+002, 5.381229e+002
5.996626e+002, 5.379860e+002
6.001447e+002, 5.404482e+002
6.006268e+002, 5.426965e+002
6.011089e+002, 5.435668e+002
6.015911e+002, 5.429305e+002
6.020732e+002, 5.425079e+002
6.025553e+002, 5.421097e+002
6.030374e+002, 5.422362e+002
6.035195e+002, 5.434278e+002
6.040016e+002, 5.457818e+002
6.044838e+002, 5.480194e+002
6.049659e+002, 5.501912e+002
6.054480e+002, 5.517953e+002
6.059301e+002, 5.517234e+002
6.064122e+002, 5.504034e+002
6.068943e+002, 5.495594e+002
6.073765e+002, 5.496843e+002
6.078586e+002, 5.504408e+002
6.083407e+002, 5.517236e+002
6.088228e+002, 5.533591e+002
6.093049e+002, 5.548857e+002
6.097870e+002, 5.561306e+002
6.102692e+002, 5.571923e+002
6.107513e+002, 5.578796e+002
6.112334e+002, 5.582758e+002
6.117155e+002, 5.592669e+002
6.121976e+002, 5.620092e+002
6.126797e+002, 5.645230e+002
6.131619e+002, 5.657766e+002
6.136440e+002, 5.653600e+002
6.141261e+002, 5.656726e+002
6.146082e+002, 5.669714e+002
6.150903e+002, 5.686136e+002
6.155724e+002, 5.700092e+002
6.160546e+002, 5.711369e+002
6.165367e+002, 5.725971e+002
6.170188e+002, 5.746106e+002
6.175009e+002, 5.765436e+002
6.179830e+002, 5.772573e+002
6.184651e+002, 5.770642e+002
6.189473e+002, 5.770438e+002
6.194294e+002, 5.776697e+002
6.199115e+002, 5.785253e+002
6.203936e+002, 5.794874e+002
6.208757e+002, 5.803869e+002
6.213578e+002, 5.807416e+002
6.218400e+002, 5.799232e+002
6.223221e+002, 5.788696e+002
6.228042e+002, 5.779767e+002
6.232863e+002, 5.772655e+002
6.237684e+002, 5.767786e+002
6.242505e+002, 5.769808e+002
6.247327e+002, 5.769612e+002
6.252148e+002, 5.761492e+002
6.256969e+002, 5.741864e+002
6.261790e+002, 5.730012e+002
6.266611e+002, 5.728926e+002
6.271432e+002, 5.729640e+002
6.276254e+002, 5.723400e+002
6.281075e+002, 5.710370e+002
6.285896e+002, 5.692012e+002
6.290717e+002, 5.667288e+002
6.295538e+002, 5.641449e+002
6.300359e+002, 5.620507e+002
6.305181e+002, 5.604172e+002
6.310002e+002, 5.591393e+002
6.314823e+002, 5.586317e+002
6.319644e+002, 5.580090e+002
6.324465e+002, 5.561988e+002
6.329286e+002, 5.536799e+002
6.334108e+002, 5.519927e+002
6.338929e+002, 5.519647e+002
6.343750e+002, 5.525500e+002
6.348571e+002, 5.539750e+002
6.353392e+002, 5.563342e+002
6.358214e+002, 5.562957e+002
6.363035e+002, 5.524510e+002
6.367856e+002, 5.482292e+002
6.372677e+002, 5.456061e+002
6.377498e+002, 5.448372e+002
6.382319e+002, 5.438419e+002
6.387141e+002, 5.425322e+002
6.391962e+002, 5.413278e+002
6.396783e+002, 5.407513e+002
6.401604e+002, 5.406579e+002
6.406425e+002, 5.405277e+002
6.411246e+002, 5.403028e+002
6.416068e+002, 5.398911e+002
6.420889e+002, 5.391459e+002
6.425710e+002, 5.381543e+002
6.430531e+002, 5.370828e+002
6.435352e+002, 5.358012e+002
6.440173e+002, 5.346338e+002
6.444995e+002, 5.336508e+002
6.449816e+002, 5.328713e+002
6.454637e+002, 5.323231e+002
6.459458e+002, 5.321866e+002
6.464279e+002, 5.321095e+002
6.469100e+002, 5.321325e+002
6.473922e+002, 5.322092e+002
6.478743e+002, 5.315890e+002
6.483564e+002, 5.299071e+002
6.488385e+002, 5.285917e+002
6.493206e+002, 5.288070e+002
6.498027e+002, 5.303145e+002
6.502849e+002, 5.307816e+002
6.507670e+002, 5.301381e+002
6.512491e+002, 5.294578e+002
6.517312e+002, 5.300627e+002
6.522133e+002, 5.311687e+002
6.526954e+002, 5.314287e+002
6.531776e+002, 5.304363e+002
6.536597e+002, 5.292893e+002
6.541418e+002, 5.285828e+002
6.546239e+002, 5.281131e+002
6.551060e+002, 5.276388e+002
6.555881e+002, 5.266863e+002
6.560703e+002, 5.262382e+002
6.565524e+002, 5.269403e+002
6.570345e+002, 5.280988e+002
6.575166e+002, 5.284421e+002
6.579987e+002, 5.276262e+002
6.584808e+002, 5.268544e+002
6.589630e+002, 5.263417e+002
6.594451e+002, 5.260948e+002
6.599272e+002, 5.261807e+002
6.604093e+002, 5.266005e+002
6.608914e+002, 5.271283e+002
6.613735e+002, 5.278199e+002
6.618557e+002, 5.284769e+002
6.623378e+002, 5.288271e+002
6.628199e+002, 5.288556e+002
6.633020e+002, 5.284227e+002
6.637841e+002, 5.267896e+002
6.642662e+002, 5.251065e+002
6.647484e+002, 5.244191e+002
6.652305e+002, 5.250240e+002
6.657126e+002, 5.254738e+002
6.661947e+002, 5.252175e+002
6.666768e+002, 5.248147e+002
6.671589e+002, 5.246943e+002
6.676411e+002, 5.251902e+002
6.681232e+002, 5.251526e+002
6.686053e+002, 5.242462e+002
6.690874e+002, 5.232488e+002
6.695695e+002, 5.233286e+002
6.700516e+002, 5.244674e+002
6.705338e+002, 5.252336e+002
6.710159e+002, 5.253098e+002
6.714980e+002, 5.249765e+002
6.719801e+002, 5.244934e+002
6.724622e+002, 5.239308e+002
6.729443e+002, 5.234960e+002
6.734265e+002, 5.232241e+002
6.739086e+002, 5.231605e+002
6.743907e+002, 5.235916e+002
6.748728e+002, 5.242941e+002
6.753549e+002, 5.245710e+002
6.758370e+002, 5.235612e+002
6.763192e+002, 5.227629e+002
6.768013e+002, 5.228718e+002
6.772834e+002, 5.237943e+002
6.777655e+002, 5.243907e+002
6.782476e+002, 5.246210e+002
6.787297e+002, 5.245923e+002
6.792119e+002, 5.240954e+002
6.796940e+002, 5.231956e+002
6.801761e+002, 5.236290e+002
6.806582e+002, 5.255284e+002
6.811403e+002, 5.272845e+002
6.816224e+002, 5.272707e+002
6.821046e+002, 5.262169e+002
6.825867e+002, 5.255172e+002
6.830688e+002, 5.253769e+002
6.835509e+002, 5.252363e+002
6.840330e+002, 5.245670e+002
6.845151e+002, 5.237669e+002
6.849973e+002, 5.232368e+002
6.854794e+002, 5.231570e+002
6.859615e+002, 5.231785e+002
6.864436e+002, 5.231676e+002
6.869257e+002, 5.232733e+002
6.874078e+002, 5.237884e+002
6.878900e+002, 5.251606e+002
6.883721e+002, 5.256473e+002
6.888542e+002, 5.246435e+002
6.893363e+002, 5.230740e+002
6.898184e+002, 5.231931e+002
6.903005e+002, 5.248269e+002
6.907827e+002, 5.257510e+002
6.912648e+002, 5.246321e+002
6.917469e+002, 5.228372e+002
6.922290e+002, 5.223685e+002
6.927111e+002, 5.229073e+002
6.931932e+002, 5.234612e+002
6.936754e+002, 5.235829e+002
6.941575e+002, 5.235184e+002
6.946396e+002, 5.231553e+002
6.951217e+002, 5.225706e+002
6.956038e+002, 5.226483e+002
6.960859e+002, 5.244937e+002
6.965681e+002, 5.259782e+002
6.970502e+002, 5.261245e+002
6.975323e+002, 5.248535e+002
6.980144e+002, 5.243464e+002
6.984965e+002, 5.247893e+002
6.989786e+002, 5.253414e+002
6.994608e+002, 5.253902e+002
6.999429e+002, 5.250193e+002
7.004250e+002, 5.245245e+002
7.009071e+002, 5.239109e+002
7.013892e+002, 5.234210e+002
7.018713e+002, 5.234113e+002
7.023535e+002, 5.235895e+002
7.028356e+002, 5.235488e+002
7.033177e+002, 5.230948e+002
7.037998e+002, 5.227899e+002
7.042819e+002, 5.229845e+002
7.047640e+002, 5.233688e+002
7.052462e+002, 5.236159e+002
7.057283e+002, 5.237269e+002
7.062104e+002, 5.236105e+002
7.066925e+002, 5.230142e+002
7.071746e+002, 5.224178e+002
7.076567e+002, 5.228419e+002
7.081389e+002, 5.243879e+002
7.086210e+002, 5.251530e+002
7.091031e+002, 5.244830e+002
7.095852e+002, 5.232289e+002
7.100673e+002, 5.226661e+002
7.105494e+002, 5.226895e+002
7.110316e+002, 5.229628e+002
7.115137e+002, 5.236707e+002
7.119958e+002, 5.242721e+002
7.124779e+002, 5.243370e+002
7.129600e+002, 5.240002e+002
7.134421e+002, 5.236728e+002
7.139243e+002, 5.231157e+002
7.144064e+002, 5.229761e+002
7.148885e+002, 5.237068e+002
7.153706e+002, 5.251304e+002
7.158527e+002, 5.257495e+002
7.163348e+002, 5.253521e+002
7.168170e+002, 5.247749e+002
7.172991e+002, 5.243365e+002
7.177812e+002, 5.240443e+002
7.182633e+002, 5.239751e+002
7.187454e+002, 5.241255e+002
7.192275e+002, 5.244285e+002
7.197097e+002, 5.251989e+002
7.201918e+002, 5.259022e+002
7.206739e+002, 5.257700e+002
7.211560e+002, 5.247414e+002
7.216381e+002, 5.237168e+002
7.221202e+002, 5.230256e+002
7.226024e+002, 5.225667e+002
7.230845e+002, 5.222404e+002
7.235666e+002, 5.219304e+002
7.240487e+002, 5.221717e+002
7.245308e+002, 5.232936e+002
7.250129e+002, 5.245409e+002
7.254951e+002, 5.253771e+002
7.259772e+002, 5.258157e+002
7.264593e+002, 5.254608e+002
7.269414e+002, 5.240696e+002
7.274235e+002, 5.228613e+002
7.279056e+002, 5.237386e+002
7.283878e+002, 5.257825e+002
7.288699e+002, 5.269193e+002
7.293520e+002, 5.264197e+002
7.298341e+002, 5.257172e+002
7.303162e+002, 5.258021e+002
7.307983e+002, 5.262468e+002
7.312805e+002, 5.265129e+002
7.317626e+002, 5.263080e+002
7.322447e+002, 5.261366e+002
7.327268e+002, 5.259785e+002
7.332089e+002, 5.259195e+002
7.336910e+002, 5.261662e+002
7.341732e+002, 5.268350e+002
7.346553e+002, 5.272673e+002
7.351374e+002, 5.272193e+002
7.356195e+002, 5.270266e+002
7.361016e+002, 5.275858e+002
7.365837e+002, 5.286521e+002
7.370659e+002, 5.291406e+002
7.375480e+002, 5.280947e+002
7.380301e+002, 5.268015e+002
7.385122e+002, 5.263729e+002
7.389943e+002, 5.266135e+002
7.394764e+002, 5.270371e+002
7.399586e+002, 5.279606e+002
7.404407e+002, 5.285287e+002
7.409228e+002, 5.280706e+002
7.414049e+002, 5.269328e+002
7.418870e+002, 5.267728e+002
7.423691e+002, 5.280667e+002
7.428513e+002, 5.290706e+002
7.433334e+002, 5.290423e+002
7.438155e+002, 5.282270e+002
7.442976e+002, 5.275168e+002
7.447797e+002, 5.269240e+002
7.452618e+002, 5.266298e+002
7.457440e+002, 5.270600e+002
7.462261e+002, 5.276583e+002
7.467082e+002, 5.275916e+002
7.471903e+002, 5.269459e+002
7.476724e+002, 5.266786e+002
7.481545e+002, 5.276597e+002
7.486367e+002, 5.287506e+002
7.491188e+002, 5.293942e+002
7.496009e+002, 5.295448e+002
7.500830e+002, 5.292897e+002
7.505651e+002, 5.282590e+002
7.510472e+002, 5.274774e+002
7.515294e+002, 5.277488e+002
7.520115e+002, 5.290255e+002
7.524936e+002, 5.297381e+002
7.529757e+002, 5.298774e+002
7.534578e+002, 5.296813e+002
7.539399e+002, 5.291762e+002
7.544221e+002, 5.285452e+002
7.549042e+002, 5.280760e+002
7.553863e+002, 5.278082e+002
7.558684e+002, 5.275963e+002
7.563505e+002, 5.273365e+002
7.568326e+002, 5.271246e+002
7.573148e+002, 5.270335e+002
7.577969e+002, 5.270861e+002
7.582790e+002, 5.272660e+002
7.587611e+002, 5.277481e+002
7.592432e+002, 5.281267e+002
7.597253e+002, 5.278592e+002
7.602075e+002, 5.269122e+002
7.606896e+002, 5.267164e+002
7.611717e+002, 5.274659e+002
7.616538e+002, 5.284862e+002
7.621359e+002, 5.291234e+002
7.626180e+002, 5.295009e+002
7.631002e+002, 5.298688e+002
7.635823e+002, 5.303561e+002
7.640644e+002, 5.305670e+002
7.645465e+002, 5.299061e+002
7.650286e+002, 5.290455e+002
7.655107e+002, 5.287198e+002
7.659929e+002, 5.297921e+002
7.664750e+002, 5.302349e+002
7.669571e+002, 5.297916e+002
7.674392e+002, 5.289827e+002
7.679213e+002, 5.284058e+002
7.684034e+002, 5.280626e+002
7.688856e+002, 5.279308e+002
7.693677e+002, 5.279913e+002
7.698498e+002, 5.283080e+002
7.703319e+002, 5.293325e+002
7.708140e+002, 5.306274e+002
7.712961e+002, 5.312158e+002
7.717783e+002, 5.303380e+002
7.722604e+002, 5.295323e+002
7.727425e+002, 5.297072e+002
7.732246e+002, 5.304307e+002
7.737067e+002, 5.310609e+002
7.741888e+002, 5.317618e+002
7.746710e+002, 5.319622e+002
7.751531e+002, 5.313928e+002
7.756352e+002, 5.304937e+002
7.761173e+002, 5.300337e+002
7.765994e+002, 5.300251e+002
7.770815e+002, 5.302531e+002
7.775637e+002, 5.307797e+002
7.780458e+002, 5.312814e+002
7.785279e+002, 5.312374e+002
7.790100e+002, 5.308096e+002
7.794921e+002, 5.303599e+002
7.799742e+002, 5.299399e+002
7.804564e+002, 5.296398e+002
7.809385e+002, 5.294827e+002
7.814206e+002, 5.294681e+002
7.819027e+002, 5.296139e+002
7.823848e+002, 5.300178e+002
7.828669e+002, 5.304395e+002
7.833491e+002, 5.310443e+002
7.838312e+002, 5.315010e+002
7.843133e+002, 5.305724e+002
7.847954e+002, 5.283160e+002
7.852775e+002, 5.271105e+002
7.857596e+002, 5.281962e+002
7.862418e+002, 5.301223e+002
7.867239e+002, 5.310007e+002
7.872060e+002, 5.311158e+002
7.876881e+002, 5.311835e+002
7.881702e+002, 5.318787e+002
7.886523e+002, 5.321924e+002
7.891345e+002, 5.312706e+002
7.896166e+002, 5.296474e+002
7.900987e+002, 5.289218e+002
7.905808e+002, 5.295778e+002
7.910629e+002, 5.301942e+002
7.915450e+002, 5.303783e+002
7.920272e+002, 5.303552e+002
7.925093e+002, 5.308469e+002
7.929914e+002, 5.318038e+002
7.934735e+002, 5.326033e+002
7.939556e+002, 5.330388e+002
7.944377e+002, 5.331444e+002
7.949199e+002, 5.327570e+002
7.954020e+002, 5.320651e+002
7.958841e+002, 5.315848e+002
7.963662e+002, 5.315642e+002
7.968483e+002, 5.317299e+002
7.973304e+002, 5.322377e+002
7.978126e+002, 5.328699e+002
7.982947e+002, 5.328805e+002
7.987768e+002, 5.320013e+002
7.992589e+002, 5.312424e+002
7.997410e+002, 5.308394e+002
8.002231e+002, 5.307948e+002
8.007053e+002, 5.311399e+002
8.011874e+002, 5.318578e+002
8.016695e+002, 5.328758e+002
8.021516e+002, 5.346486e+002
8.026337e+002, 5.362628e+002
8.031158e+002, 5.367487e+002
8.035980e+002, 5.364087e+002
8.040801e+002, 5.360938e+002
8.045622e+002, 5.363945e+002
8.050443e+002, 5.363286e+002
8.055264e+002, 5.352467e+002
8.060085e+002, 5.336745e+002
8.064907e+002, 5.335559e+002
8.069728e+002, 5.352665e+002
8.074549e+002, 5.363998e+002
8.079370e+002, 5.358658e+002
8.084191e+002, 5.345973e+002
8.089012e+002, 5.345690e+002
8.093834e+002, 5.355084e+002
8.098655e+002, 5.364379e+002
8.103476e+002, 5.370671e+002
8.108297e+002, 5.373597e+002
8.113118e+002, 5.369791e+002
8.117939e+002, 5.362238e+002
8.122761e+002, 5.359904e+002
8.127582e+002, 5.369929e+002
8.132403e+002, 5.376989e+002
8.137224e+002, 5.376765e+002
8.142045e+002, 5.372234e+002
8.146866e+002, 5.372050e+002
8.151688e+002, 5.376243e+002
8.156509e+002, 5.382391e+002
8.161330e+002, 5.391574e+002
8.166151e+002, 5.399743e+002
8.170972e+002, 5.397748e+002
8.175793e+002, 5.389807e+002
8.180615e+002, 5.386799e+002
8.185436e+002, 5.398889e+002
8.190257e+002, 5.410942e+002
8.195078e+002, 5.416395e+002
8.199899e+002, 5.417305e+002
8.204720e+002, 5.420068e+002
8.209542e+002, 5.426750e+002
8.214363e+002, 5.429562e+002
8.219184e+002, 5.424762e+002
8.224005e+002, 5.417404e+002
8.228826e+002, 5.421232e+002
8.233647e+002, 5.434023e+002
8.238469e+002, 5.442380e+002
8.243290e+002, 5.438577e+002
8.248111e+002, 5.432573e+002
8.252932e+002, 5.433475e+002
8.257753e+002, 5.438885e+002
8.262574e+002, 5.443968e+002
8.267396e+002, 5.448987e+002
8.272217e+002, 5.451487e+002
8.277038e+002, 5.449401e+002
8.281859e+002, 5.445607e+002
8.286681e+002, 5.446096e+002
8.291502e+002, 5.451700e+002
8.296323e+002, 5.455684e+002
8.301144e+002, 5.456566e+002
8.305966e+002, 5.454979e+002
8.310787e+002, 5.449269e+002
8.315608e+002, 5.441997e+002
8.320429e+002, 5.439336e+002
8.325250e+002, 5.445059e+002
8.330071e+002, 5.453223e+002
8.334893e+002, 5.463949e+002
8.339714e+002, 5.474289e+002
8.344535e+002, 5.479537e+002
8.349356e+002, 5.477653e+002
8.354177e+002, 5.474217e+002
8.358998e+002, 5.468232e+002
8.363820e+002, 5.462899e+002
8.368641e+002, 5.465032e+002
8.373462e+002, 5.473359e+002
8.378283e+002, 5.475798e+002
8.383104e+002, 5.468083e+002
8.387925e+002, 5.460269e+002
8.392747e+002, 5.463613e+002
8.397568e+002, 5.472503e+002
8.402389e+002, 5.479155e+002
8.407210e+002, 5.479822e+002
8.412031e+002, 5.481390e+002
8.416852e+002, 5.488297e+002
8.421674e+002, 5.494473e+002
8.426495e+002, 5.493231e+002
8.431316e+002, 5.482833e+002
8.436137e+002, 5.474896e+002
8.440958e+002, 5.469743e+002
8.445779e+002, 5.469104e+002
8.450601e+002, 5.479960e+002
8.455422e+002, 5.495760e+002
8.460243e+002, 5.501689e+002
8.465064e+002, 5.493644e+002
8.469885e+002, 5.484791e+002
8.474706e+002, 5.480807e+002
8.479528e+002, 5.480211e+002
8.484349e+002, 5.482303e+002
8.489170e+002, 5.488577e+002
8.493991e+002, 5.492208e+002
8.498812e+002, 5.492398e+002
8.503633e+002, 5.491334e+002
8.508455e+002, 5.490861e+002
8.513276e+002, 5.490751e+002
8.518097e+002, 5.489767e+002
8.522918e+002, 5.487852e+002
8.527739e+002, 5.485047e+002
8.532560e+002, 5.479079e+002
8.537382e+002, 5.473839e+002
8.542203e+002, 5.474249e+002
8.547024e+002, 5.481576e+002
8.551845e+002, 5.485985e+002
8.556666e+002, 5.482669e+002
8.561487e+002, 5.479166e+002
8.566309e+002, 5.479480e+002
8.571130e+002, 5.483541e+002
8.575951e+002, 5.484418e+002
8.580772e+002, 5.481903e+002
8.585593e+002, 5.478574e+002
8.590414e+002, 5.475280e+002
8.595236e+002, 5.472615e+002
8.600057e+002, 5.471841e+002
8.604878e+002, 5.472740e+002
8.609699e+002, 5.473837e+002
8.614520e+002, 5.475417e+002
8.619341e+002, 5.476078e+002
8.624163e+002, 5.473782e+002
8.628984e+002, 5.469393e+002
8.633805e+002, 5.469809e+002
8.638626e+002, 5.477067e+002
8.643447e+002, 5.482100e+002
8.648268e+002, 5.479869e+002
8.653090e+002, 5.474214e+002
8.657911e+002, 5.477108e+002
8.662732e+002, 5.485844e+002
8.667553e+002, 5.489263e+002
8.672374e+002, 5.472385e+002
8.677195e+002, 5.457372e+002
8.682017e+002, 5.462648e+002
8.686838e+002, 5.480392e+002
8.691659e+002, 5.487443e+002
8.696480e+002, 5.475734e+002
8.701301e+002, 5.464843e+002
8.706122e+002, 5.457454e+002
8.710944e+002, 5.453753e+002
8.715765e+002, 5.457270e+002
8.720586e+002, 5.466464e+002
8.725407e+002, 5.468405e+002
8.730228e+002, 5.456666e+002
8.735049e+002, 5.442473e+002
8.739871e+002, 5.436221e+002
8.744692e+002, 5.434738e+002
8.749513e+002, 5.433088e+002
8.754334e+002, 5.427330e+002
8.759155e+002, 5.425324e+002
8.763976e+002, 5.429012e+002
8.768798e+002, 5.435267e+002
8.773619e+002, 5.440938e+002
8.778440e+002, 5.446012e+002
8.783261e+002, 5.450015e+002
8.788082e+002, 5.453102e+002
8.792903e+002, 5.453608e+002
8.797725e+002, 5.446715e+002
8.802546e+002, 5.437233e+002
8.807367e+002, 5.433409e+002
8.812188e+002, 5.438552e+002
8.817009e+002, 5.439744e+002
8.821830e+002, 5.424592e+002
8.826652e+002, 5.410159e+002
8.831473e+002, 5.409239e+002
8.836294e+002, 5.424691e+002
8.841115e+002, 5.435597e+002
8.845936e+002, 5.442103e+002
8.850757e+002, 5.443655e+002
8.855579e+002, 5.436467e+002
8.860400e+002, 5.425275e+002
8.865221e+002, 5.419495e+002
8.870042e+002, 5.419432e+002
8.874863e+002, 5.421750e+002
8.879684e+002, 5.430145e+002
8.884506e+002, 5.435634e+002
8.889327e+002, 5.429201e+002
8.894148e+002, 5.412292e+002
8.898969e+002, 5.408688e+002
8.903790e+002, 5.423165e+002
8.908611e+002, 5.436637e+002
8.913433e+002, 5.441533e+002
8.918254e+002, 5.439673e+002
8.923075e+002, 5.434039e+002
8.927896e+002, 5.425486e+002
8.932717e+002, 5.418093e+002
8.937538e+002, 5.414006e+002
8.942360e+002, 5.411355e+002
8.947181e+002, 5.409031e+002
8.952002e+002, 5.407296e+002
8.956823e+002, 5.407411e+002
8.961644e+002, 5.412419e+002
8.966465e+002, 5.412193e+002
8.971287e+002, 5.402469e+002
8.976108e+002, 5.390556e+002
8.980929e+002, 5.392161e+002
8.985750e+002, 5.404283e+002
8.990571e+002, 5.413090e+002
8.995392e+002, 5.415637e+002
9.000214e+002, 5.412585e+002
9.005035e+002, 5.399553e+002
9.009856e+002, 5.383625e+002
9.014677e+002, 5.372829e+002
9.019498e+002, 5.370961e+002
9.024319e+002, 5.371679e+002
9.029141e+002, 5.377709e+002
9.033962e+002, 5.382158e+002
9.038783e+002, 5.376066e+002
9.043604e+002, 5.361056e+002
9.048425e+002, 5.355168e+002
9.053246e+002, 5.359886e+002
9.058068e+002, 5.364012e+002
9.062889e+002, 5.353811e+002
9.067710e+002, 5.341725e+002
9.072531e+002, 5.340748e+002
9.077352e+002, 5.353005e+002
9.082173e+002, 5.361956e+002
9.086995e+002, 5.362142e+002
9.091816e+002, 5.363090e+002
9.096637e+002, 5.369635e+002
9.101458e+002, 5.380584e+002
9.106279e+002, 5.387540e+002
9.111100e+002, 5.390665e+002
9.115922e+002, 5.392921e+002
9.120743e+002, 5.396030e+002
9.125564e+002, 5.399131e+002
9.130385e+002, 5.401349e+002
9.135206e+002, 5.402854e+002
9.140027e+002, 5.404188e+002
9.144849e+002, 5.403220e+002
9.149670e+002, 5.405239e+002
9.154491e+002, 5.412049e+002
9.159312e+002, 5.421724e+002
9.164133e+002, 5.430528e+002
9.168954e+002, 5.438485e+002
9.173776e+002, 5.445621e+002
9.178597e+002, 5.451573e+002
9.183418e+002, 5.457915e+002
9.188239e+002, 5.467277e+002
9.193060e+002, 5.477768e+002
9.197881e+002, 5.486755e+002
9.202703e+002, 5.493400e+002
9.207524e+002, 5.498633e+002
9.212345e+002, 5.499555e+002
9.217166e+002, 5.502277e+002
9.221987e+002, 5.513101e+002
9.226808e+002, 5.532432e+002
9.231630e+002, 5.548759e+002
9.236451e+002, 5.561714e+002
9.241272e+002, 5.571736e+002
9.246093e+002, 5.577643e+002
9.250914e+002, 5.581832e+002
9.255735e+002, 5.587250e+002
9.260557e+002, 5.594022e+002
9.265378e+002, 5.599594e+002
9.270199e+002, 5.603428e+002
9.275020e+002, 5.605518e+002
9.279841e+002, 5.605001e+002
9.284662e+002, 5.602668e+002
9.289484e+002, 5.603981e+002
9.294305e+002, 5.608901e+002
9.299126e+002, 5.612704e+002
9.303947e+002, 5.611747e+002
9.308768e+002, 5.610090e+002
9.313589e+002, 5.616071e+002
9.318411e+002, 5.624759e+002
9.323232e+002, 5.625116e+002
9.328053e+002, 5.604655e+002
9.332874e+002, 5.587316e+002
9.337695e+002, 5.575365e+002
9.342516e+002, 5.569528e+002
9.347338e+002, 5.574297e+002
9.352159e+002, 5.589642e+002
9.356980e+002, 5.596198e+002
9.361801e+002, 5.590016e+002
9.366622e+002, 5.579449e+002
9.371443e+002, 5.568694e+002
9.376265e+002, 5.560582e+002
9.381086e+002, 5.559476e+002
9.385907e+002, 5.567740e+002
9.390728e+002, 5.575755e+002
9.395549e+002, 5.579396e+002
9.400370e+002, 5.585316e+002
9.405192e+002, 5.599797e+002
9.410013e+002, 5.621866e+002
9.414834e+002, 5.631423e+002
9.419655e+002, 5.628694e+002
9.424476e+002, 5.622910e+002
9.429297e+002, 5.618701e+002
9.434119e+002, 5.615572e+002
9.438940e+002, 5.611618e+002
9.443761e+002, 5.607946e+002
9.448582e+002, 5.609545e+002
9.453403e+002, 5.623009e+002
9.458224e+002, 5.634563e+002
9.463046e+002, 5.641309e+002
9.467867e+002, 5.644697e+002
9.472688e+002, 5.646437e+002
9.477509e+002, 5.647157e+002
9.482330e+002, 5.652972e+002
9.487151e+002, 5.668309e+002
9.491973e+002, 5.681953e+002
9.496794e+002, 5.679267e+002
9.501615e+002, 5.671094e+002
9.506436e+002, 5.670499e+002
9.511257e+002, 5.681735e+002
9.516078e+002, 5.698461e+002
9.520900e+002, 5.722055e+002
9.525721e+002, 5.748594e+002
9.530542e+002, 5.772901e+002
9.535363e+002, 5.796639e+002
9.540184e+002, 5.831492e+002
9.545005e+002, 5.877331e+002
9.549827e+002, 5.926414e+002
9.554648e+002, 5.973160e+002
9.559469e+002, 6.021035e+002
9.564290e+002, 6.071227e+002
9.569111e+002, 6.124492e+002
9.573932e+002, 6.184248e+002
9.578754e+002, 6.250700e+002
9.583575e+002, 6.323483e+002
9.588396e+002, 6.401803e+002
9.593217e+002, 6.486198e+002
9.598038e+002, 6.575948e+002
9.602859e+002, 6.671299e+002
9.607681e+002, 6.772469e+002
9.612502e+002, 6.882639e+002
9.617323e+002, 6.994072e+002
9.622144e+002, 7.103752e+002
9.626965e+002, 7.211537e+002
9.631786e+002, 7.319081e+002
9.636608e+002, 7.434391e+002
9.641429e+002, 7.526064e+002
9.646250e+002, 7.592515e+002
9.651071e+002, 7.635163e+002
9.655892e+002, 7.662397e+002
9.660714e+002, 7.664570e+002
9.665535e+002, 7.618245e+002
9.670356e+002, 7.522493e+002
9.675177e+002, 7.399277e+002
9.679998e+002, 7.244001e+002
9.684819e+002, 7.078895e+002
9.689641e+002, 6.909910e+002
9.694462e+002, 6.739391e+002
9.699283e+002, 6.574930e+002
9.704104e+002, 6.414883e+002
9.708925e+002, 6.273893e+002
9.713746e+002, 6.160502e+002
9.718568e+002, 6.063231e+002
9.723389e+002, 5.959753e+002
9.728210e+002, 5.857670e+002
9.733031e+002, 5.772260e+002
9.737852e+002, 5.716135e+002
9.742673e+002, 5.667986e+002
9.747495e+002, 5.624705e+002
9.752316e+002, 5.585914e+002
9.757137e+002, 5.552296e+002
9.761958e+002, 5.523829e+002
9.766779e+002, 5.493360e+002
9.771600e+002, 5.459769e+002
9.776422e+002, 5.430208e+002
9.781243e+002, 5.413257e+002
9.786064e+002, 5.401443e+002
9.790885e+002, 5.386990e+002
9.795706e+002, 5.369229e+002
9.800527e+002, 5.351565e+002
9.805349e+002, 5.333557e+002
9.810170e+002, 5.317321e+002
9.814991e+002, 5.303368e+002
9.819812e+002, 5.291660e+002
9.824633e+002, 5.281919e+002
9.829454e+002, 5.274225e+002
9.834276e+002, 5.269417e+002
9.839097e+002, 5.269461e+002
9.843918e+002, 5.269979e+002
9.848739e+002, 5.267724e+002
9.853560e+002, 5.263923e+002
9.858381e+002, 5.260647e+002
9.863203e+002, 5.259896e+002
9.868024e+002, 5.255051e+002
9.872845e+002, 5.244247e+002
9.877666e+002, 5.233620e+002
9.882487e+002, 5.230446e+002
9.887308e+002, 5.232335e+002
9.892130e+002, 5.233179e+002
9.896951e+002, 5.232484e+002
9.901772e+002, 5.231420e+002
9.906593e+002, 5.231713e+002
9.911414e+002, 5.230666e+002
9.916235e+002, 5.225158e+002
9.921057e+002, 5.216554e+002
9.925878e+002, 5.213389e+002
9.930699e+002, 5.216453e+002
9.935520e+002, 5.218387e+002
9.940341e+002, 5.216165e+002
9.945162e+002, 5.212066e+002
9.949984e+002, 5.207145e+002
9.954805e+002, 5.203263e+002
9.959626e+002, 5.204105e+002
9.964447e+002, 5.215085e+002
9.969268e+002, 5.224064e+002
9.974089e+002, 5.230922e+002
9.978911e+002, 5.233568e+002
9.983732e+002, 5.228585e+002
9.988553e+002, 5.216385e+002
9.993374e+002, 5.205073e+002
9.998195e+002, 5.195049e+002
1.000302e+003, 5.189634e+002
1.000784e+003, 5.194076e+002
1.001266e+003, 5.201906e+002
1.001748e+003, 5.207948e+002
1.002230e+003, 5.212146e+002
1.002712e+003, 5.217701e+002
1.003194e+003, 5.227478e+002
1.003676e+003, 5.231809e+002
1.004159e+003, 5.225790e+002
1.004641e+003, 5.216014e+002
1.005123e+003, 5.218069e+002
1.005605e+003, 5.227736e+002
1.006087e+003, 5.230958e+002
1.006569e+003, 5.219159e+002
1.007051e+003, 5.212552e+002
1.007533e+003, 5.228839e+002
1.008016e+003, 5.249482e+002
1.008498e+003, 5.256877e+002
1.008980e+003, 5.247396e+002
1.009462e+003, 5.245411e+002
1.009944e+003, 5.251576e+002
1.010426e+003, 5.260743e+002
1.010908e+003, 5.271034e+002
1.011390e+003, 5.280692e+002
1.011872e+003, 5.286812e+002
1.012355e+003, 5.289949e+002
1.012837e+003, 5.293050e+002
1.013319e+003, 5.295148e+002
1.013801e+003, 5.299884e+002
1.014283e+003, 5.309157e+002
1.014765e+003, 5.320095e+002
1.015247e+003, 5.325511e+002
1.015729e+003, 5.326848e+002
1.016211e+003, 5.337244e+002
1.016694e+003, 5.361726e+002
1.017176e+003, 5.382538e+002
1.017658e+003, 5.380495e+002
1.018140e+003, 5.371455e+002
1.018622e+003, 5.370971e+002
1.019104e+003, 5.382659e+002
1.019586e+003, 5.386351e+002
1.020068e+003, 5.379172e+002
1.020551e+003, 5.373843e+002
1.021033e+003, 5.378643e+002
1.021515e+003, 5.389083e+002
1.021997e+003, 5.396263e+002
1.022479e+003, 5.400577e+002
1.022961e+003, 5.403072e+002
1.023443e+003, 5.401087e+002
1.023925e+003, 5.401155e+002
1.024407e+003, 5.407252e+002
1.024890e+003, 5.414792e+002
1.025372e+003, 5.416985e+002
1.025854e+003, 5.413488e+002
1.026336e+003, 5.415800e+002
1.026818e+003, 5.425471e+002
1.027300e+003, 5.435536e+002
1.027782e+003, 5.441323e+002
1.028264e+003, 5.443543e+002
1.028746e+003, 5.440568e+002
1.029229e+003, 5.432512e+002
1.029711e+003, 5.431592e+002
1.030193e+003, 5.442005e+002
1.030675e+003, 5.451300e+002
1.031157e+003, 5.454064e+002
1.031639e+003, 5.454654e+002
1.032121e+003, 5.464889e+002
1.032603e+003, 5.481670e+002
1.033086e+003, 5.494789e+002
1.033568e+003, 5.499976e+002
1.034050e+003, 5.503827e+002
1.034532e+003, 5.506797e+002
1.035014e+003, 5.511663e+002
1.035496e+003, 5.521583e+002
1.035978e+003, 5.537786e+002
1.036460e+003, 5.549064e+002
1.036943e+003, 5.554847e+002
1.037425e+003, 5.562216e+002
1.037907e+003, 5.576133e+002
1.038389e+003, 5.594284e+002
1.038871e+003, 5.615721e+002
1.039353e+003, 5.639395e+002
1.039835e+003, 5.660660e+002
1.040317e+003, 5.674276e+002
1.040799e+003, 5.693408e+002
1.041281e+003, 5.723182e+002
1.041764e+003, 5.754484e+002
1.042246e+003, 5.771278e+002
1.042728e+003, 5.777614e+002
1.043210e+003, 5.786929e+002
1.043692e+003, 5.802418e+002
1.044174e+003, 5.814423e+002
1.044656e+003, 5.818407e+002
1.045138e+003, 5.816256e+002
1.045621e+003, 5.809376e+002
1.046103e+003, 5.797946e+002
1.046585e+003, 5.780283e+002
1.047067e+003, 5.756220e+002
1.047549e+003, 5.729237e+002
1.048031e+003, 5.703126e+002
1.048513e+003, 5.672372e+002
1.048995e+003, 5.625012e+002
1.049478e+003, 5.570349e+002
1.049960e+003, 5.524213e+002
1.050442e+003, 5.495457e+002
1.050924e+003, 5.469434e+002
1.051406e+003, 5.448395e+002
1.051888e+003, 5.424955e+002
1.052370e+003, 5.388203e+002
1.052852e+003, 5.343406e+002
1.053334e+003, 5.307977e+002
1.053817e+003, 5.282370e+002
1.054299e+003, 5.262786e+002
1.054781e+003, 5.253971e+002
1.055263e+003, 5.243416e+002
1.055745e+003, 5.222835e+002
1.056227e+003, 5.196977e+002
1.056709e+003, 5.176706e+002
1.057191e+003, 5.162208e+002
1.057673e+003, 5.149180e+002
1.058156e+003, 5.136438e+002
1.058638e+003, 5.125961e+002
1.059120e+003, 5.121628e+002
1.059602e+003, 5.119357e+002
1.060084e+003, 5.114349e+002
1.060566e+003, 5.105154e+002
1.061048e+003, 5.097933e+002
1.061530e+003, 5.093138e+002
1.062013e+003, 5.089919e+002
1.062495e+003, 5.090014e+002
1.062977e+003, 5.089797e+002
1.063459e+003, 5.077453e+002
1.063941e+003, 5.057096e+002
1.064423e+003, 5.040109e+002
1.064905e+003, 5.029342e+002
1.065387e+003, 5.025063e+002
1.065870e+003, 5.034843e+002
1.066352e+003, 5.045447e+002
1.066834e+003, 5.043253e+002
1.067316e+003, 5.028145e+002
1.067798e+003, 5.019903e+002
1.068280e+003, 5.019174e+002
1.068762e+003, 5.019609e+002
1.069244e+003, 5.017066e+002
1.069726e+003, 5.013318e+002
1.070208e+003, 5.010359e+002
1.070691e+003, 5.007492e+002
1.071173e+003, 5.001401e+002
1.071655e+003, 4.990034e+002
1.072137e+003, 4.981620e+002
1.072619e+003, 4.977560e+002
1.073101e+003, 4.976932e+002
1.073583e+003, 4.981079e+002
1.074065e+003, 4.986691e+002
1.074548e+003, 4.988350e+002
1.075030e+003, 4.984890e+002
1.075512e+003, 4.979677e+002
1.075994e+003, 4.972609e+002
1.076476e+003, 4.965019e+002
1.076958e+003, 4.956217e+002
1.077440e+003, 4.947871e+002
1.077922e+003, 4.948004e+002
1.078405e+003, 4.954853e+002
1.078887e+003, 4.959701e+002
1.079369e+003, 4.958283e+002
1.079851e+003, 4.955750e+002
1.080333e+003, 4.956275e+002
1.080815e+003, 4.956294e+002
1.081297e+003, 4.951231e+002
1.081779e+003, 4.939130e+002
1.082261e+003, 4.933936e+002
1.082744e+003, 4.936061e+002
1.083226e+003, 4.939200e+002
1.083708e+003, 4.938018e+002
1.084190e+003, 4.936057e+002
1.084672e+003, 4.937198e+002
1.085154e+003, 4.940741e+002
1.085636e+003, 4.944088e+002
1.086118e+003, 4.946487e+002
1.086601e+003, 4.949828e+002
1.087083e+003, 4.955246e+002
1.087565e+003, 4.959477e+002
1.088047e+003, 4.956995e+002
1.088529e+003, 4.950628e+002
1.089011e+003, 4.947035e+002
1.089493e+003, 4.946931e+002
1.089975e+003, 4.944125e+002
1.090458e+003, 4.928843e+002
1.090940e+003, 4.919262e+002
1.091422e+003, 4.924722e+002
1.091904e+003, 4.938943e+002
1.092386e+003, 4.942908e+002
1.092868e+003, 4.937656e+002
1.093350e+003, 4.928553e+002
1.093832e+003, 4.915141e+002
1.094314e+003, 4.904767e+002
1.094797e+003, 4.903940e+002
1.095279e+003, 4.907617e+002
1.095761e+003, 4.911775e+002
1.096243e+003, 4.916324e+002
1.096725e+003, 4.919483e+002
1.097207e+003, 4.921288e+002
1.097689e+003, 4.921776e+002
1.098171e+003, 4.919044e+002
1.098653e+003, 4.917005e+002
1.099136e+003, 4.923430e+002
1.099618e+003, 4.933148e+002
1.100100e+003, 4.935708e+002
1.100582e+003, 4.920204e+002
1.101064e+003, 4.914976e+002
1.101546e+003, 4.924263e+002
1.102028e+003, 4.934747e+002
1.102510e+003, 4.931338e+002
1.102993e+003, 4.921095e+002
1.103475e+003, 4.921176e+002
1.103957e+003, 4.930179e+002
1.104439e+003, 4.935253e+002
1.104921e+003, 4.925345e+002
1.105403e+003, 4.918384e+002
1.105885e+003, 4.920081e+002
1.106367e+003, 4.925749e+002
1.106849e+003, 4.926886e+002
1.107332e+003, 4.924519e+002
1.107814e+003, 4.923954e+002
1.108296e+003, 4.926083e+002
1.108778e+003, 4.929089e+002
1.109260e+003, 4.934213e+002
1.109742e+003, 4.937567e+002
1.110224e+003, 4.935509e+002
1.110706e+003, 4.929398e+002
1.111188e+003, 4.925328e+002
1.111671e+003, 4.923184e+002
1.112153e+003, 4.926406e+002
1.112635e+003, 4.939310e+002
1.113117e+003, 4.949464e+002
1.113599e+003, 4.940044e+002
1.114081e+003, 4.923358e+002
1.114563e+003, 4.914514e+002
1.115045e+003, 4.917131e+002
1.115528e+003, 4.916437e+002
1.116010e+003, 4.911906e+002
1.116492e+003, 4.906285e+002
1.116974e+003, 4.901093e+002
1.117456e+003, 4.895848e+002
1.117938e+003, 4.888569e+002
1.118420e+003, 4.880859e+002
1.118902e+003, 4.876093e+002
1.119385e+003, 4.877639e+002
1.119867e+003, 4.879051e+002
1.120349e+003, 4.880478e+002
1.120831e+003, 4.880894e+002
1.121313e+003, 4.879399e+002
1.121795e+003, 4.876129e+002
1.122277e+003, 4.869976e+002
1.122759e+003, 4.861776e+002
1.123241e+003, 4.856418e+002
1.123724e+003, 4.859265e+002
1.124206e+003, 4.861379e+002
1.124688e+003, 4.860423e+002
1.125170e+003, 4.857136e+002
1.125652e+003, 4.851034e+002
1.126134e+003, 4.843034e+002
1.126616e+003, 4.841006e+002
1.127098e+003, 4.846026e+002
1.127580e+003, 4.851117e+002
1.128063e+003, 4.852676e+002
1.128545e+003, 4.851773e+002
1.129027e+003, 4.848026e+002
1.129509e+003, 4.842540e+002
1.129991e+003, 4.838837e+002
1.130473e+003, 4.836996e+002
1.130955e+003, 4.834608e+002
1.131437e+003, 4.830111e+002
1.131920e+003, 4.828831e+002
1.132402e+003, 4.843710e+002
1.132884e+003, 4.858953e+002
1.133366e+003, 4.855581e+002
1.133848e+003, 4.830813e+002
1.134330e+003, 4.817159e+002
1.134812e+003, 4.815728e+002
1.135294e+003, 4.819703e+002
1.135776e+003, 4.828394e+002
1.136259e+003, 4.837326e+002
1.136741e+003, 4.841434e+002
1.137223e+003, 4.841351e+002
1.137705e+003, 4.837581e+002
1.138187e+003, 4.825821e+002
1.138669e+003, 4.821316e+002
1.139151e+003, 4.826510e+002
1.139633e+003, 4.832786e+002
1.140115e+003, 4.833991e+002
1.140598e+003, 4.832420e+002
1.141080e+003, 4.832858e+002
1.141562e+003, 4.834650e+002
1.142044e+003, 4.835968e+002
1.142526e+003, 4.837420e+002
1.143008e+003, 4.836347e+002
1.143490e+003, 4.831868e+002
1.143972e+003, 4.826156e+002
1.144455e+003, 4.821209e+002
1.144937e+003, 4.816892e+002
1.145419e+003, 4.812354e+002
1.145901e+003, 4.807756e+002
1.146383e+003, 4.804029e+002
1.146865e+003, 4.800035e+002
1.147347e+003, 4.799350e+002
1.147829e+003, 4.803965e+002
1.148312e+003, 4.811143e+002
1.148794e+003, 4.817935e+002
1.149276e+003, 4.823852e+002
1.149758e+003, 4.823994e+002
1.150240e+003, 4.817703e+002
1.150722e+003, 4.812206e+002
1.151204e+003, 4.814086e+002
1.151686e+003, 4.815949e+002
1.152168e+003, 4.811422e+002
1.152651e+003, 4.804312e+002
1.153133e+003, 4.809020e+002
1.153615e+003, 4.824678e+002
1.154097e+003, 4.828174e+002
1.154579e+003, 4.811316e+002
1.155061e+003, 4.797132e+002
1.155543e+003, 4.812671e+002
1.156025e+003, 4.832280e+002
1.156507e+003, 4.830674e+002
1.156990e+003, 4.810512e+002
1.157472e+003, 4.801730e+002
1.157954e+003, 4.805065e+002
1.158436e+003, 4.808228e+002
1.158918e+003, 4.806158e+002
1.159400e+003, 4.804393e+002
1.159882e+003, 4.810822e+002
1.160364e+003, 4.819415e+002
1.160847e+003, 4.822406e+002
1.161329e+003, 4.817985e+002
1.161811e+003, 4.817101e+002
1.162293e+003, 4.820731e+002
1.162775e+003, 4.821598e+002
1.163257e+003, 4.813780e+002
1.163739e+003, 4.803876e+002
1.164221e+003, 4.799693e+002
1.164703e+003, 4.799301e+002
1.165186e+003, 4.799528e+002
1.165668e+003, 4.799330e+002
1.166150e+003, 4.801545e+002
1.166632e+003, 4.807555e+002
1.167114e+003, 4.810719e+002
1.167596e+003, 4.801265e+002
1.168078e+003, 4.788925e+002
1.168560e+003, 4.792793e+002
1.169042e+003, 4.806901e+002
1.169525e+003, 4.815195e+002
1.170007e+003, 4.808472e+002
1.170489e+003, 4.804018e+002
1.170971e+003, 4.803300e+002
1.171453e+003, 4.803384e+002
1.171935e+003, 4.802438e+002
1.172417e+003, 4.799864e+002
1.172899e+003, 4.791855e+002
1.173382e+003, 4.780285e+002
1.173864e+003, 4.774786e+002
1.174346e+003, 4.783658e+002
1.174828e+003, 4.792162e+002
1.175310e+003, 4.799483e+002
1.175792e+003, 4.803615e+002
1.176274e+003, 4.799916e+002
1.176756e+003, 4.791652e+002
1.177239e+003, 4.785969e+002
1.177721e+003, 4.783515e+002
1.178203e+003, 4.783072e+002
1.178685e+003, 4.785609e+002
1.179167e+003, 4.788124e+002
1.179649e+003, 4.789076e+002
1.180131e+003, 4.790680e+002
1.180613e+003, 4.800077e+002
1.181095e+003, 4.813105e+002
1.181578e+003, 4.815730e+002
1.182060e+003, 4.805340e+002
1.182542e+003, 4.797529e+002
1.183024e+003, 4.801844e+002
1.183506e+003, 4.807043e+002
1.183988e+003, 4.809318e+002
1.184470e+003, 4.809686e+002
1.184952e+003, 4.809775e+002
1.185434e+003, 4.810135e+002
1.185917e+003, 4.813950e+002
1.186399e+003, 4.823465e+002
1.186881e+003, 4.828131e+002
1.187363e+003, 4.816890e+002
1.187845e+003, 4.805949e+002
1.188327e+003, 4.803459e+002
1.188809e+003, 4.807160e+002
1.189291e+003, 4.809175e+002
1.189774e+003, 4.809708e+002
1.190256e+003, 4.809975e+002
1.190738e+003, 4.810608e+002
1.191220e+003, 4.810148e+002
1.191702e+003, 4.807680e+002
1.192184e+003, 4.803863e+002
1.192666e+003, 4.798426e+002
1.193148e+003, 4.791978e+002
1.193630e+003, 4.788525e+002
1.194113e+003, 4.787900e+002
1.194595e+003, 4.789247e+002
1.195077e+003, 4.793226e+002
1.195559e+003, 4.797260e+002
1.196041e+003, 4.802310e+002
1.196523e+003, 4.804805e+002
1.197005e+003, 4.800865e+002
1.197487e+003, 4.791071e+002
1.197969e+003, 4.785762e+002
1.198452e+003, 4.784377e+002
1.198934e+003, 4.782137e+002
1.199416e+003, 4.771960e+002
1.199898e+003, 4.766301e+002
1.200380e+003, 4.776955e+002
1.200862e+003, 4.790831e+002
1.201344e+003, 4.794375e+002
1.201826e+003, 4.787645e+002
1.202309e+003, 4.784254e+002
1.202791e+003, 4.783978e+002
1.203273e+003, 4.783330e+002
1.203755e+003, 4.777933e+002
1.204237e+003, 4.774258e+002
1.204719e+003, 4.776687e+002
1.205201e+003, 4.782042e+002
1.205683e+003, 4.787890e+002
1.206166e+003, 4.794041e+002
1.206648e+003, 4.793702e+002
1.207130e+003, 4.786932e+002
1.207612e+003, 4.779529e+002
1.208094e+003, 4.772105e+002
1.208576e+003, 4.768487e+002
1.209058e+003, 4.775605e+002
1.209540e+003, 4.785220e+002
1.210022e+003, 4.783988e+002
1.210505e+003, 4.772490e+002
1.210987e+003, 4.770161e+002
1.211469e+003, 4.778116e+002
1.211951e+003, 4.783766e+002
1.212433e+003, 4.774532e+002
1.212915e+003, 4.765153e+002
1.213397e+003, 4.765156e+002
1.213879e+003, 4.769829e+002
1.214361e+003, 4.772262e+002
1.214844e+003, 4.772461e+002
1.215326e+003, 4.769423e+002
1.215808e+003, 4.763015e+002
1.216290e+003, 4.756490e+002
1.216772e+003, 4.749468e+002
1.217254e+003, 4.745796e+002
1.217736e+003, 4.749150e+002
1.218218e+003, 4.756320e+002
1.218701e+003, 4.761416e+002
1.219183e+003, 4.764467e+002
1.219665e+003, 4.765968e+002
1.220147e+003, 4.765829e+002
1.220629e+003, 4.766549e+002
1.221111e+003, 4.772122e+002
1.221593e+003, 4.776293e+002
1.222075e+003, 4.774196e+002
1.222557e+003, 4.769140e+002
1.223040e+003, 4.771407e+002
1.223522e+003, 4.779478e+002
1.224004e+003, 4.780435e+002
1.224486e+003, 4.771363e+002
1.224968e+003, 4.762144e+002
1.225450e+003, 4.760433e+002
1.225932e+003, 4.758361e+002
1.226414e+003, 4.750130e+002
1.226896e+003, 4.739517e+002
1.227379e+003, 4.739377e+002
1.227861e+003, 4.747754e+002
1.228343e+003, 4.753423e+002
1.228825e+003, 4.753256e+002
1.229307e+003, 4.754783e+002
1.229789e+003, 4.767245e+002
1.230271e+003, 4.776508e+002
1.230753e+003, 4.773747e+002
1.231236e+003, 4.763652e+002
1.231718e+003, 4.763499e+002
1.232200e+003, 4.770246e+002
1.232682e+003, 4.771258e+002
1.233164e+003, 4.762380e+002
1.233646e+003, 4.752361e+002
1.234128e+003, 4.742171e+002
1.234610e+003, 4.735913e+002
1.235093e+003, 4.736625e+002
1.235575e+003, 4.741978e+002
1.236057e+003, 4.744998e+002
1.236539e+003, 4.746191e+002
1.237021e+003, 4.747294e+002
1.237503e+003, 4.749297e+002
1.237985e+003, 4.749308e+002
1.238467e+003, 4.743647e+002
1.238949e+003, 4.739064e+002
1.239432e+003, 4.739357e+002
1.239914e+003, 4.742201e+002
1.240396e+003, 4.739522e+002
1.240878e+003, 4.733557e+002
1.241360e+003, 4.731323e+002
1.241842e+003, 4.737251e+002
1.242324e+003, 4.738392e+002
1.242806e+003, 4.725728e+002
1.243288e+003, 4.718432e+002
1.243771e+003, 4.730248e+002
1.244253e+003, 4.750379e+002
1.244735e+003, 4.748535e+002
1.245217e+003, 4.733296e+002
1.245699e+003, 4.725622e+002
1.246181e+003, 4.735433e+002
1.246663e+003, 4.740976e+002
1.247145e+003, 4.737614e+002
1.247628e+003, 4.734824e+002
1.248110e+003, 4.739013e+002
1.248592e+003, 4.745817e+002
1.249074e+003, 4.745744e+002
1.249556e+003, 4.741294e+002
1.250038e+003, 4.737104e+002
1.250520e+003, 4.733595e+002
1.251002e+003, 4.732873e+002
1.251484e+003, 4.735671e+002
1.251967e+003, 4.739035e+002
1.252449e+003, 4.741948e+002
1.252931e+003, 4.743605e+002
1.253413e+003, 4.742177e+002
1.253895e+003, 4.738754e+002
1.254377e+003, 4.734787e+002
1.254859e+003, 4.728150e+002
1.255341e+003, 4.730138e+002
1.255823e+003, 4.743703e+002
1.256306e+003, 4.751362e+002
1.256788e+003, 4.736776e+002
1.257270e+003, 4.717996e+002
1.257752e+003, 4.720132e+002
1.258234e+003, 4.731852e+002
1.258716e+003, 4.734261e+002
1.259198e+003, 4.722808e+002
1.259680e+003, 4.715244e+002
1.260163e+003, 4.711701e+002
1.260645e+003, 4.711426e+002
1.261127e+003, 4.717780e+002
1.261609e+003, 4.722531e+002
1.262091e+003, 4.714310e+002
1.262573e+003, 4.701972e+002
1.263055e+003, 4.698039e+002
1.263537e+003, 4.703951e+002
1.264020e+003, 4.709199e+002
1.264502e+003, 4.713767e+002
1.264984e+003, 4.717096e+002
1.265466e+003, 4.718783e+002
1.265948e+003, 4.719051e+002
1.266430e+003, 4.716334e+002
1.266912e+003, 4.713337e+002
1.267394e+003, 4.713675e+002
1.267876e+003, 4.717408e+002
1.268359e+003, 4.717594e+002
1.268841e+003, 4.714481e+002
1.269323e+003, 4.710246e+002
1.269805e+003, 4.703784e+002
1.270287e+003, 4.699591e+002
1.270769e+003, 4.702543e+002
1.271251e+003, 4.706260e+002
1.271733e+003, 4.703917e+002
1.272215e+003, 4.697176e+002
1.272698e+003, 4.704130e+002
1.273180e+003, 4.720663e+002
1.273662e+003, 4.727289e+002
1.274144e+003, 4.701580e+002
1.274626e+003, 4.684998e+002
1.275108e+003, 4.690883e+002
1.275590e+003, 4.700520e+002
1.276072e+003, 4.698870e+002
1.276555e+003, 4.689304e+002
1.277037e+003, 4.680883e+002
1.277519e+003, 4.674460e+002
1.278001e+003, 4.672523e+002
1.278483e+003, 4.682775e+002
1.278965e+003, 4.686212e+002
1.279447e+003, 4.679339e+002
1.279929e+003, 4.671491e+002
1.280411e+003, 4.669493e+002
1.280894e+003, 4.671515e+002
1.281376e+003, 4.675720e+002
1.281858e+003, 4.681001e+002
1.282340e+003, 4.684889e+002
1.282822e+003, 4.685716e+002
1.283304e+003, 4.688214e+002
1.283786e+003, 4.693159e+002
1.284268e+003, 4.696091e+002
1.284750e+003, 4.690756e+002
1.285233e+003, 4.684643e+002
1.285715e+003, 4.689647e+002
1.286197e+003, 4.698871e+002
1.286679e+003, 4.699107e+002
1.287161e+003, 4.685801e+002
1.287643e+003, 4.681227e+002
1.288125e+003, 4.685570e+002
1.288607e+003, 4.692918e+002
1.289090e+003, 4.704281e+002
1.289572e+003, 4.711695e+002
1.290054e+003, 4.703456e+002
1.290536e+003, 4.691866e+002
1.291018e+003, 4.693809e+002
1.291500e+003, 4.710086e+002
1.291982e+003, 4.714632e+002
1.292464e+003, 4.708412e+002
1.292947e+003, 4.700526e+002
1.293429e+003, 4.696471e+002
1.293911e+003, 4.690808e+002
1.294393e+003, 4.677062e+002
1.294875e+003, 4.664931e+002
1.295357e+003, 4.662975e+002
1.295839e+003, 4.669096e+002
1.296321e+003, 4.672374e+002
1.296803e+003, 4.673473e+002
1.297286e+003, 4.674326e+002
1.297768e+003, 4.676333e+002
1.298250e+003, 4.676965e+002
1.298732e+003, 4.674994e+002
1.299214e+003, 4.673734e+002
1.299696e+003, 4.676313e+002
1.300178e+003, 4.680190e+002
1.300660e+003, 4.682418e+002
##END=



