##NAMES=Maghemite
##RRUFFID=R140712
##IDEAL CHEMISTRY=(Fe^3+^_0.67_[box]_0.33_)Fe^3+^_2_O_4_
##LOCALITY=Katzenbuckel, Eberbach, Odenwald, Baden-WÃ¼rttemberg, Germany
##OWNER=RRUFF
##SOURCE=Rock Currier
##DESCRIPTION=Black aggregate of small to fine grains. Fd3m symmetry
##STATUS=The identification of this mineral has been confirmed only by single crystal X-ray diffraction.
##URL=rruff.info/R140712
8.813672e+001, 2.270692e+002
8.861884e+001, 2.311772e+002
8.910095e+001, 2.345129e+002
8.958307e+001, 2.365308e+002
9.006519e+001, 2.388990e+002
9.054730e+001, 2.437711e+002
9.102942e+001, 2.530079e+002
9.151154e+001, 2.617204e+002
9.199365e+001, 2.636203e+002
9.247577e+001, 2.597412e+002
9.295789e+001, 2.552047e+002
9.344000e+001, 2.535243e+002
9.392212e+001, 2.537673e+002
9.440424e+001, 2.538789e+002
9.488635e+001, 2.540673e+002
9.536847e+001, 2.540411e+002
9.585059e+001, 2.526567e+002
9.633270e+001, 2.497859e+002
9.681482e+001, 2.470289e+002
9.729694e+001, 2.456373e+002
9.777905e+001, 2.455746e+002
9.826117e+001, 2.469617e+002
9.874329e+001, 2.505978e+002
9.922540e+001, 2.559236e+002
9.970752e+001, 2.586767e+002
1.001896e+002, 2.582838e+002
1.006718e+002, 2.565445e+002
1.011539e+002, 2.555645e+002
1.016360e+002, 2.553717e+002
1.021181e+002, 2.557799e+002
1.026002e+002, 2.567746e+002
1.030823e+002, 2.583990e+002
1.035645e+002, 2.602187e+002
1.040466e+002, 2.618880e+002
1.045287e+002, 2.639750e+002
1.050108e+002, 2.676207e+002
1.054929e+002, 2.730908e+002
1.059750e+002, 2.796750e+002
1.064572e+002, 2.875556e+002
1.069393e+002, 3.003880e+002
1.074214e+002, 3.078739e+002
1.079035e+002, 3.079090e+002
1.083856e+002, 3.024199e+002
1.088677e+002, 2.981126e+002
1.093499e+002, 2.951078e+002
1.098320e+002, 2.931454e+002
1.103141e+002, 2.921139e+002
1.107962e+002, 2.922625e+002
1.112783e+002, 2.930297e+002
1.117604e+002, 2.945112e+002
1.122426e+002, 2.966544e+002
1.127247e+002, 2.990119e+002
1.132068e+002, 3.007710e+002
1.136889e+002, 3.031220e+002
1.141710e+002, 3.068734e+002
1.146531e+002, 3.145366e+002
1.151353e+002, 3.213938e+002
1.156174e+002, 3.257632e+002
1.160995e+002, 3.276000e+002
1.165816e+002, 3.294537e+002
1.170637e+002, 3.333602e+002
1.175458e+002, 3.374146e+002
1.180280e+002, 3.395868e+002
1.185101e+002, 3.369794e+002
1.189922e+002, 3.337050e+002
1.194743e+002, 3.322225e+002
1.199564e+002, 3.328013e+002
1.204385e+002, 3.340296e+002
1.209207e+002, 3.341145e+002
1.214028e+002, 3.342921e+002
1.218849e+002, 3.367293e+002
1.223670e+002, 3.456610e+002
1.228491e+002, 3.560191e+002
1.233312e+002, 3.623172e+002
1.238134e+002, 3.635039e+002
1.242955e+002, 3.623600e+002
1.247776e+002, 3.604610e+002
1.252597e+002, 3.581006e+002
1.257418e+002, 3.562584e+002
1.262239e+002, 3.555214e+002
1.267061e+002, 3.557281e+002
1.271882e+002, 3.564890e+002
1.276703e+002, 3.576171e+002
1.281524e+002, 3.595642e+002
1.286345e+002, 3.636773e+002
1.291166e+002, 3.697353e+002
1.295988e+002, 3.754261e+002
1.300809e+002, 3.789477e+002
1.305630e+002, 3.806068e+002
1.310451e+002, 3.817225e+002
1.315272e+002, 3.824134e+002
1.320093e+002, 3.827791e+002
1.324915e+002, 3.829665e+002
1.329736e+002, 3.829413e+002
1.334557e+002, 3.829830e+002
1.339378e+002, 3.832545e+002
1.344199e+002, 3.837536e+002
1.349020e+002, 3.846404e+002
1.353842e+002, 3.859624e+002
1.358663e+002, 3.876834e+002
1.363484e+002, 3.897335e+002
1.368305e+002, 3.920626e+002
1.373126e+002, 3.948519e+002
1.377947e+002, 3.984627e+002
1.382769e+002, 4.031171e+002
1.387590e+002, 4.075935e+002
1.392411e+002, 4.120259e+002
1.397232e+002, 4.164787e+002
1.402053e+002, 4.176768e+002
1.406874e+002, 4.146158e+002
1.411696e+002, 4.096429e+002
1.416517e+002, 4.059013e+002
1.421338e+002, 4.037929e+002
1.426159e+002, 4.020018e+002
1.430980e+002, 4.001072e+002
1.435801e+002, 3.980238e+002
1.440623e+002, 3.963785e+002
1.445444e+002, 3.950511e+002
1.450265e+002, 3.942567e+002
1.455086e+002, 3.944536e+002
1.459907e+002, 3.964013e+002
1.464728e+002, 3.983648e+002
1.469550e+002, 3.999342e+002
1.474371e+002, 4.014746e+002
1.479192e+002, 4.017378e+002
1.484013e+002, 3.999565e+002
1.488834e+002, 3.969894e+002
1.493655e+002, 3.946751e+002
1.498477e+002, 3.930933e+002
1.503298e+002, 3.921127e+002
1.508119e+002, 3.917372e+002
1.512940e+002, 3.925371e+002
1.517761e+002, 3.930898e+002
1.522583e+002, 3.930306e+002
1.527404e+002, 3.926465e+002
1.532225e+002, 3.927587e+002
1.537046e+002, 3.938909e+002
1.541867e+002, 3.952040e+002
1.546688e+002, 3.963559e+002
1.551510e+002, 3.984894e+002
1.556331e+002, 3.990318e+002
1.561152e+002, 3.963896e+002
1.565973e+002, 3.914675e+002
1.570794e+002, 3.878812e+002
1.575615e+002, 3.873611e+002
1.580437e+002, 3.878037e+002
1.585258e+002, 3.879015e+002
1.590079e+002, 3.867366e+002
1.594900e+002, 3.858624e+002
1.599721e+002, 3.859078e+002
1.604542e+002, 3.867177e+002
1.609364e+002, 3.873896e+002
1.614185e+002, 3.870735e+002
1.619006e+002, 3.867367e+002
1.623827e+002, 3.871568e+002
1.628648e+002, 3.901547e+002
1.633469e+002, 3.925522e+002
1.638291e+002, 3.925188e+002
1.643112e+002, 3.902678e+002
1.647933e+002, 3.880542e+002
1.652754e+002, 3.871129e+002
1.657575e+002, 3.867300e+002
1.662396e+002, 3.861558e+002
1.667218e+002, 3.843766e+002
1.672039e+002, 3.828809e+002
1.676860e+002, 3.828746e+002
1.681681e+002, 3.843292e+002
1.686502e+002, 3.858649e+002
1.691323e+002, 3.864299e+002
1.696145e+002, 3.865695e+002
1.700966e+002, 3.870238e+002
1.705787e+002, 3.888549e+002
1.710608e+002, 3.906680e+002
1.715429e+002, 3.910790e+002
1.720250e+002, 3.900133e+002
1.725072e+002, 3.886376e+002
1.729893e+002, 3.876061e+002
1.734714e+002, 3.868958e+002
1.739535e+002, 3.864624e+002
1.744356e+002, 3.865540e+002
1.749177e+002, 3.867949e+002
1.753999e+002, 3.866805e+002
1.758820e+002, 3.861581e+002
1.763641e+002, 3.856064e+002
1.768462e+002, 3.852351e+002
1.773283e+002, 3.850771e+002
1.778104e+002, 3.852237e+002
1.782926e+002, 3.861872e+002
1.787747e+002, 3.873511e+002
1.792568e+002, 3.875146e+002
1.797389e+002, 3.864951e+002
1.802210e+002, 3.852675e+002
1.807031e+002, 3.849821e+002
1.811853e+002, 3.854437e+002
1.816674e+002, 3.859720e+002
1.821495e+002, 3.862732e+002
1.826316e+002, 3.863914e+002
1.831137e+002, 3.864028e+002
1.835958e+002, 3.863032e+002
1.840780e+002, 3.861579e+002
1.845601e+002, 3.859803e+002
1.850422e+002, 3.858026e+002
1.855243e+002, 3.857859e+002
1.860064e+002, 3.863528e+002
1.864885e+002, 3.872203e+002
1.869707e+002, 3.872187e+002
1.874528e+002, 3.861230e+002
1.879349e+002, 3.846122e+002
1.884170e+002, 3.837097e+002
1.888991e+002, 3.833867e+002
1.893812e+002, 3.831484e+002
1.898634e+002, 3.826299e+002
1.903455e+002, 3.819149e+002
1.908276e+002, 3.815856e+002
1.913097e+002, 3.817646e+002
1.917918e+002, 3.821316e+002
1.922739e+002, 3.821349e+002
1.927561e+002, 3.817592e+002
1.932382e+002, 3.812524e+002
1.937203e+002, 3.805783e+002
1.942024e+002, 3.797784e+002
1.946845e+002, 3.794998e+002
1.951666e+002, 3.799117e+002
1.956488e+002, 3.806700e+002
1.961309e+002, 3.811888e+002
1.966130e+002, 3.814837e+002
1.970951e+002, 3.814562e+002
1.975772e+002, 3.809125e+002
1.980593e+002, 3.798457e+002
1.985415e+002, 3.789643e+002
1.990236e+002, 3.782873e+002
1.995057e+002, 3.778579e+002
1.999878e+002, 3.778062e+002
2.004699e+002, 3.781545e+002
2.009520e+002, 3.787734e+002
2.014342e+002, 3.798770e+002
2.019163e+002, 3.815929e+002
2.023984e+002, 3.821876e+002
2.028805e+002, 3.812037e+002
2.033626e+002, 3.793385e+002
2.038447e+002, 3.784538e+002
2.043269e+002, 3.788263e+002
2.048090e+002, 3.791781e+002
2.052911e+002, 3.785552e+002
2.057732e+002, 3.766854e+002
2.062553e+002, 3.757368e+002
2.067374e+002, 3.761200e+002
2.072196e+002, 3.773230e+002
2.077017e+002, 3.779120e+002
2.081838e+002, 3.777095e+002
2.086659e+002, 3.773861e+002
2.091480e+002, 3.773283e+002
2.096301e+002, 3.776046e+002
2.101123e+002, 3.778388e+002
2.105944e+002, 3.780080e+002
2.110765e+002, 3.781271e+002
2.115586e+002, 3.782456e+002
2.120407e+002, 3.783858e+002
2.125228e+002, 3.784764e+002
2.130050e+002, 3.784488e+002
2.134871e+002, 3.782434e+002
2.139692e+002, 3.781387e+002
2.144513e+002, 3.781577e+002
2.149334e+002, 3.782794e+002
2.154155e+002, 3.784598e+002
2.158977e+002, 3.787325e+002
2.163798e+002, 3.789873e+002
2.168619e+002, 3.790934e+002
2.173440e+002, 3.788658e+002
2.178261e+002, 3.791271e+002
2.183082e+002, 3.802661e+002
2.187904e+002, 3.818057e+002
2.192725e+002, 3.821341e+002
2.197546e+002, 3.805837e+002
2.202367e+002, 3.790099e+002
2.207188e+002, 3.785303e+002
2.212009e+002, 3.798799e+002
2.216831e+002, 3.802513e+002
2.221652e+002, 3.790449e+002
2.226473e+002, 3.769616e+002
2.231294e+002, 3.761782e+002
2.236115e+002, 3.773742e+002
2.240936e+002, 3.787504e+002
2.245758e+002, 3.794576e+002
2.250579e+002, 3.792561e+002
2.255400e+002, 3.789841e+002
2.260221e+002, 3.786927e+002
2.265042e+002, 3.783370e+002
2.269863e+002, 3.777209e+002
2.274685e+002, 3.764569e+002
2.279506e+002, 3.755244e+002
2.284327e+002, 3.754664e+002
2.289148e+002, 3.768841e+002
2.293969e+002, 3.777598e+002
2.298790e+002, 3.779165e+002
2.303612e+002, 3.775652e+002
2.308433e+002, 3.771784e+002
2.313254e+002, 3.764714e+002
2.318075e+002, 3.761445e+002
2.322896e+002, 3.766273e+002
2.327717e+002, 3.785459e+002
2.332539e+002, 3.796893e+002
2.337360e+002, 3.797310e+002
2.342181e+002, 3.790892e+002
2.347002e+002, 3.787217e+002
2.351823e+002, 3.788014e+002
2.356644e+002, 3.788879e+002
2.361466e+002, 3.787736e+002
2.366287e+002, 3.782950e+002
2.371108e+002, 3.780709e+002
2.375929e+002, 3.782567e+002
2.380750e+002, 3.786346e+002
2.385571e+002, 3.787402e+002
2.390393e+002, 3.784158e+002
2.395214e+002, 3.780767e+002
2.400035e+002, 3.779158e+002
2.404856e+002, 3.780924e+002
2.409677e+002, 3.779404e+002
2.414498e+002, 3.771906e+002
2.419320e+002, 3.762647e+002
2.424141e+002, 3.759550e+002
2.428962e+002, 3.767048e+002
2.433783e+002, 3.773662e+002
2.438604e+002, 3.775195e+002
2.443425e+002, 3.769933e+002
2.448247e+002, 3.766307e+002
2.453068e+002, 3.765729e+002
2.457889e+002, 3.765959e+002
2.462710e+002, 3.762531e+002
2.467531e+002, 3.750417e+002
2.472352e+002, 3.743377e+002
2.477174e+002, 3.747841e+002
2.481995e+002, 3.767793e+002
2.486816e+002, 3.778164e+002
2.491637e+002, 3.774204e+002
2.496458e+002, 3.764154e+002
2.501279e+002, 3.760283e+002
2.506101e+002, 3.767309e+002
2.510922e+002, 3.771267e+002
2.515743e+002, 3.765875e+002
2.520564e+002, 3.748395e+002
2.525385e+002, 3.743521e+002
2.530206e+002, 3.758839e+002
2.535028e+002, 3.779847e+002
2.539849e+002, 3.787515e+002
2.544670e+002, 3.774482e+002
2.549491e+002, 3.764207e+002
2.554312e+002, 3.763283e+002
2.559133e+002, 3.772393e+002
2.563955e+002, 3.778365e+002
2.568776e+002, 3.779605e+002
2.573597e+002, 3.779492e+002
2.578418e+002, 3.781774e+002
2.583239e+002, 3.787737e+002
2.588061e+002, 3.793097e+002
2.592882e+002, 3.797448e+002
2.597703e+002, 3.800762e+002
2.602524e+002, 3.800923e+002
2.607345e+002, 3.796373e+002
2.612166e+002, 3.790869e+002
2.616988e+002, 3.787706e+002
2.621809e+002, 3.787465e+002
2.626630e+002, 3.788094e+002
2.631451e+002, 3.789220e+002
2.636272e+002, 3.790928e+002
2.641093e+002, 3.794226e+002
2.645915e+002, 3.800493e+002
2.650736e+002, 3.806054e+002
2.655557e+002, 3.807059e+002
2.660378e+002, 3.801175e+002
2.665199e+002, 3.799489e+002
2.670020e+002, 3.805449e+002
2.674842e+002, 3.816851e+002
2.679663e+002, 3.821538e+002
2.684484e+002, 3.817339e+002
2.689305e+002, 3.811382e+002
2.694126e+002, 3.808619e+002
2.698947e+002, 3.809764e+002
2.703769e+002, 3.810547e+002
2.708590e+002, 3.809880e+002
2.713411e+002, 3.808864e+002
2.718232e+002, 3.812243e+002
2.723053e+002, 3.822068e+002
2.727874e+002, 3.829992e+002
2.732696e+002, 3.829563e+002
2.737517e+002, 3.818861e+002
2.742338e+002, 3.812317e+002
2.747159e+002, 3.811095e+002
2.751980e+002, 3.814165e+002
2.756801e+002, 3.820502e+002
2.761623e+002, 3.831309e+002
2.766444e+002, 3.840142e+002
2.771265e+002, 3.842141e+002
2.776086e+002, 3.836548e+002
2.780907e+002, 3.836291e+002
2.785728e+002, 3.843729e+002
2.790550e+002, 3.853363e+002
2.795371e+002, 3.854076e+002
2.800192e+002, 3.844620e+002
2.805013e+002, 3.836404e+002
2.809834e+002, 3.835612e+002
2.814655e+002, 3.841979e+002
2.819477e+002, 3.844411e+002
2.824298e+002, 3.841194e+002
2.829119e+002, 3.838334e+002
2.833940e+002, 3.846725e+002
2.838761e+002, 3.866668e+002
2.843582e+002, 3.882922e+002
2.848404e+002, 3.888376e+002
2.853225e+002, 3.884743e+002
2.858046e+002, 3.882206e+002
2.862867e+002, 3.880762e+002
2.867688e+002, 3.880391e+002
2.872509e+002, 3.882268e+002
2.877331e+002, 3.886097e+002
2.882152e+002, 3.887395e+002
2.886973e+002, 3.883545e+002
2.891794e+002, 3.876514e+002
2.896615e+002, 3.873340e+002
2.901436e+002, 3.874359e+002
2.906258e+002, 3.875545e+002
2.911079e+002, 3.873004e+002
2.915900e+002, 3.867318e+002
2.920721e+002, 3.861282e+002
2.925542e+002, 3.855385e+002
2.930363e+002, 3.849914e+002
2.935185e+002, 3.846015e+002
2.940006e+002, 3.843641e+002
2.944827e+002, 3.840835e+002
2.949648e+002, 3.834144e+002
2.954469e+002, 3.825470e+002
2.959290e+002, 3.821734e+002
2.964112e+002, 3.826226e+002
2.968933e+002, 3.832520e+002
2.973754e+002, 3.828121e+002
2.978575e+002, 3.814926e+002
2.983396e+002, 3.804742e+002
2.988217e+002, 3.809863e+002
2.993039e+002, 3.822831e+002
2.997860e+002, 3.827937e+002
3.002681e+002, 3.821620e+002
3.007502e+002, 3.812034e+002
3.012323e+002, 3.809019e+002
3.017144e+002, 3.810894e+002
3.021966e+002, 3.812054e+002
3.026787e+002, 3.808232e+002
3.031608e+002, 3.802393e+002
3.036429e+002, 3.798920e+002
3.041250e+002, 3.798509e+002
3.046071e+002, 3.798062e+002
3.050893e+002, 3.794410e+002
3.055714e+002, 3.788634e+002
3.060535e+002, 3.783152e+002
3.065356e+002, 3.778022e+002
3.070177e+002, 3.774217e+002
3.074998e+002, 3.774122e+002
3.079820e+002, 3.777799e+002
3.084641e+002, 3.779824e+002
3.089462e+002, 3.774633e+002
3.094283e+002, 3.765880e+002
3.099104e+002, 3.758565e+002
3.103925e+002, 3.753697e+002
3.108747e+002, 3.751704e+002
3.113568e+002, 3.755644e+002
3.118389e+002, 3.764426e+002
3.123210e+002, 3.769729e+002
3.128031e+002, 3.763291e+002
3.132852e+002, 3.752921e+002
3.137674e+002, 3.746070e+002
3.142495e+002, 3.746034e+002
3.147316e+002, 3.748337e+002
3.152137e+002, 3.752888e+002
3.156958e+002, 3.758502e+002
3.161779e+002, 3.761230e+002
3.166601e+002, 3.756189e+002
3.171422e+002, 3.749726e+002
3.176243e+002, 3.746087e+002
3.181064e+002, 3.747082e+002
3.185885e+002, 3.748681e+002
3.190706e+002, 3.750441e+002
3.195528e+002, 3.751792e+002
3.200349e+002, 3.751656e+002
3.205170e+002, 3.747039e+002
3.209991e+002, 3.743051e+002
3.214812e+002, 3.742902e+002
3.219633e+002, 3.748815e+002
3.224455e+002, 3.751225e+002
3.229276e+002, 3.743789e+002
3.234097e+002, 3.733284e+002
3.238918e+002, 3.728038e+002
3.243739e+002, 3.735992e+002
3.248560e+002, 3.742839e+002
3.253382e+002, 3.744513e+002
3.258203e+002, 3.740346e+002
3.263024e+002, 3.736572e+002
3.267845e+002, 3.732057e+002
3.272666e+002, 3.728983e+002
3.277487e+002, 3.729141e+002
3.282309e+002, 3.738287e+002
3.287130e+002, 3.743869e+002
3.291951e+002, 3.742490e+002
3.296772e+002, 3.735152e+002
3.301593e+002, 3.732233e+002
3.306414e+002, 3.739818e+002
3.311236e+002, 3.746026e+002
3.316057e+002, 3.743661e+002
3.320878e+002, 3.723635e+002
3.325699e+002, 3.711392e+002
3.330520e+002, 3.710445e+002
3.335341e+002, 3.717257e+002
3.340163e+002, 3.722188e+002
3.344984e+002, 3.723970e+002
3.349805e+002, 3.725882e+002
3.354626e+002, 3.730080e+002
3.359447e+002, 3.738486e+002
3.364268e+002, 3.741359e+002
3.369090e+002, 3.736896e+002
3.373911e+002, 3.728842e+002
3.378732e+002, 3.723456e+002
3.383553e+002, 3.721837e+002
3.388374e+002, 3.719009e+002
3.393195e+002, 3.711678e+002
3.398017e+002, 3.700324e+002
3.402838e+002, 3.698564e+002
3.407659e+002, 3.709683e+002
3.412480e+002, 3.722142e+002
3.417301e+002, 3.722157e+002
3.422122e+002, 3.708681e+002
3.426944e+002, 3.698319e+002
3.431765e+002, 3.695192e+002
3.436586e+002, 3.697564e+002
3.441407e+002, 3.700231e+002
3.446228e+002, 3.703183e+002
3.451049e+002, 3.706208e+002
3.455871e+002, 3.709984e+002
3.460692e+002, 3.714088e+002
3.465513e+002, 3.715081e+002
3.470334e+002, 3.711929e+002
3.475155e+002, 3.706732e+002
3.479977e+002, 3.702275e+002
3.484798e+002, 3.698605e+002
3.489619e+002, 3.696501e+002
3.494440e+002, 3.697582e+002
3.499261e+002, 3.700417e+002
3.504082e+002, 3.701766e+002
3.508904e+002, 3.701367e+002
3.513725e+002, 3.699972e+002
3.518546e+002, 3.697314e+002
3.523367e+002, 3.694165e+002
3.528188e+002, 3.692510e+002
3.533009e+002, 3.694732e+002
3.537831e+002, 3.698099e+002
3.542652e+002, 3.700057e+002
3.547473e+002, 3.700544e+002
3.552294e+002, 3.698586e+002
3.557115e+002, 3.691923e+002
3.561936e+002, 3.682872e+002
3.566758e+002, 3.674177e+002
3.571579e+002, 3.664413e+002
3.576400e+002, 3.657950e+002
3.581221e+002, 3.660204e+002
3.586042e+002, 3.669030e+002
3.590863e+002, 3.676718e+002
3.595685e+002, 3.680522e+002
3.600506e+002, 3.681078e+002
3.605327e+002, 3.678262e+002
3.610148e+002, 3.670743e+002
3.614969e+002, 3.663510e+002
3.619790e+002, 3.656396e+002
3.624612e+002, 3.651254e+002
3.629433e+002, 3.651059e+002
3.634254e+002, 3.664295e+002
3.639075e+002, 3.675987e+002
3.643896e+002, 3.679188e+002
3.648717e+002, 3.672334e+002
3.653539e+002, 3.665396e+002
3.658360e+002, 3.654419e+002
3.663181e+002, 3.647036e+002
3.668002e+002, 3.649904e+002
3.672823e+002, 3.684735e+002
3.677644e+002, 3.706737e+002
3.682466e+002, 3.702462e+002
3.687287e+002, 3.674569e+002
3.692108e+002, 3.656107e+002
3.696929e+002, 3.652564e+002
3.701750e+002, 3.653498e+002
3.706571e+002, 3.653671e+002
3.711393e+002, 3.651196e+002
3.716214e+002, 3.651631e+002
3.721035e+002, 3.657894e+002
3.725856e+002, 3.666203e+002
3.730677e+002, 3.666967e+002
3.735498e+002, 3.655123e+002
3.740320e+002, 3.645547e+002
3.745141e+002, 3.645142e+002
3.749962e+002, 3.655598e+002
3.754783e+002, 3.659804e+002
3.759604e+002, 3.655983e+002
3.764425e+002, 3.648788e+002
3.769247e+002, 3.642941e+002
3.774068e+002, 3.638219e+002
3.778889e+002, 3.636819e+002
3.783710e+002, 3.640758e+002
3.788531e+002, 3.648149e+002
3.793352e+002, 3.651216e+002
3.798174e+002, 3.649741e+002
3.802995e+002, 3.645251e+002
3.807816e+002, 3.636104e+002
3.812637e+002, 3.623439e+002
3.817458e+002, 3.618559e+002
3.822279e+002, 3.624983e+002
3.827101e+002, 3.635563e+002
3.831922e+002, 3.637687e+002
3.836743e+002, 3.632632e+002
3.841564e+002, 3.629069e+002
3.846385e+002, 3.633168e+002
3.851206e+002, 3.641736e+002
3.856028e+002, 3.649085e+002
3.860849e+002, 3.655090e+002
3.865670e+002, 3.658474e+002
3.870491e+002, 3.656214e+002
3.875312e+002, 3.650599e+002
3.880133e+002, 3.646137e+002
3.884955e+002, 3.644273e+002
3.889776e+002, 3.644411e+002
3.894597e+002, 3.647086e+002
3.899418e+002, 3.651817e+002
3.904239e+002, 3.655762e+002
3.909060e+002, 3.657953e+002
3.913882e+002, 3.658206e+002
3.918703e+002, 3.655379e+002
3.923524e+002, 3.645913e+002
3.928345e+002, 3.640438e+002
3.933166e+002, 3.649023e+002
3.937987e+002, 3.665017e+002
3.942809e+002, 3.674955e+002
3.947630e+002, 3.668291e+002
3.952451e+002, 3.659980e+002
3.957272e+002, 3.656673e+002
3.962093e+002, 3.659751e+002
3.966914e+002, 3.662505e+002
3.971736e+002, 3.664158e+002
3.976557e+002, 3.664607e+002
3.981378e+002, 3.663742e+002
3.986199e+002, 3.657849e+002
3.991020e+002, 3.654832e+002
3.995841e+002, 3.659244e+002
4.000663e+002, 3.668978e+002
4.005484e+002, 3.669343e+002
4.010305e+002, 3.650504e+002
4.015126e+002, 3.632930e+002
4.019947e+002, 3.627578e+002
4.024768e+002, 3.642573e+002
4.029590e+002, 3.650341e+002
4.034411e+002, 3.647850e+002
4.039232e+002, 3.640484e+002
4.044053e+002, 3.638289e+002
4.048874e+002, 3.643531e+002
4.053695e+002, 3.647222e+002
4.058517e+002, 3.645929e+002
4.063338e+002, 3.640104e+002
4.068159e+002, 3.635987e+002
4.072980e+002, 3.633875e+002
4.077801e+002, 3.632504e+002
4.082622e+002, 3.630990e+002
4.087444e+002, 3.629292e+002
4.092265e+002, 3.626476e+002
4.097086e+002, 3.621526e+002
4.101907e+002, 3.616361e+002
4.106728e+002, 3.615738e+002
4.111549e+002, 3.619214e+002
4.116371e+002, 3.622365e+002
4.121192e+002, 3.622173e+002
4.126013e+002, 3.619684e+002
4.130834e+002, 3.616601e+002
4.135655e+002, 3.612805e+002
4.140476e+002, 3.610197e+002
4.145298e+002, 3.612684e+002
4.150119e+002, 3.617574e+002
4.154940e+002, 3.619498e+002
4.159761e+002, 3.614482e+002
4.164582e+002, 3.606965e+002
4.169403e+002, 3.599911e+002
4.174225e+002, 3.593440e+002
4.179046e+002, 3.588389e+002
4.183867e+002, 3.585397e+002
4.188688e+002, 3.584095e+002
4.193509e+002, 3.584477e+002
4.198330e+002, 3.587368e+002
4.203152e+002, 3.590215e+002
4.207973e+002, 3.593480e+002
4.212794e+002, 3.595935e+002
4.217615e+002, 3.595371e+002
4.222436e+002, 3.587079e+002
4.227257e+002, 3.579642e+002
4.232079e+002, 3.576488e+002
4.236900e+002, 3.578438e+002
4.241721e+002, 3.579572e+002
4.246542e+002, 3.578005e+002
4.251363e+002, 3.576336e+002
4.256184e+002, 3.576566e+002
4.261006e+002, 3.581223e+002
4.265827e+002, 3.583709e+002
4.270648e+002, 3.582539e+002
4.275469e+002, 3.578816e+002
4.280290e+002, 3.576574e+002
4.285111e+002, 3.576501e+002
4.289933e+002, 3.576381e+002
4.294754e+002, 3.574494e+002
4.299575e+002, 3.570018e+002
4.304396e+002, 3.570522e+002
4.309217e+002, 3.577989e+002
4.314038e+002, 3.586124e+002
4.318860e+002, 3.584485e+002
4.323681e+002, 3.572513e+002
4.328502e+002, 3.567087e+002
4.333323e+002, 3.575945e+002
4.338144e+002, 3.592178e+002
4.342965e+002, 3.595467e+002
4.347787e+002, 3.586063e+002
4.352608e+002, 3.576019e+002
4.357429e+002, 3.575108e+002
4.362250e+002, 3.580053e+002
4.367071e+002, 3.582199e+002
4.371892e+002, 3.579966e+002
4.376714e+002, 3.577532e+002
4.381535e+002, 3.581162e+002
4.386356e+002, 3.588039e+002
4.391177e+002, 3.591898e+002
4.395998e+002, 3.586572e+002
4.400819e+002, 3.579377e+002
4.405641e+002, 3.576867e+002
4.410462e+002, 3.578634e+002
4.415283e+002, 3.580078e+002
4.420104e+002, 3.577258e+002
4.424925e+002, 3.573700e+002
4.429746e+002, 3.572435e+002
4.434568e+002, 3.574829e+002
4.439389e+002, 3.578056e+002
4.444210e+002, 3.580778e+002
4.449031e+002, 3.583760e+002
4.453852e+002, 3.588504e+002
4.458673e+002, 3.602330e+002
4.463495e+002, 3.611196e+002
4.468316e+002, 3.608387e+002
4.473137e+002, 3.591305e+002
4.477958e+002, 3.580919e+002
4.482779e+002, 3.581703e+002
4.487600e+002, 3.585622e+002
4.492422e+002, 3.586908e+002
4.497243e+002, 3.584731e+002
4.502064e+002, 3.581390e+002
4.506885e+002, 3.575569e+002
4.511706e+002, 3.569314e+002
4.516527e+002, 3.569489e+002
4.521349e+002, 3.578368e+002
4.526170e+002, 3.585450e+002
4.530991e+002, 3.584535e+002
4.535812e+002, 3.576040e+002
4.540633e+002, 3.572473e+002
4.545454e+002, 3.574087e+002
4.550276e+002, 3.578854e+002
4.555097e+002, 3.586279e+002
4.559918e+002, 3.595630e+002
4.564739e+002, 3.601778e+002
4.569560e+002, 3.602056e+002
4.574381e+002, 3.600853e+002
4.579203e+002, 3.607346e+002
4.584024e+002, 3.619518e+002
4.588845e+002, 3.628079e+002
4.593666e+002, 3.625436e+002
4.598488e+002, 3.616900e+002
4.603309e+002, 3.607623e+002
4.608130e+002, 3.597827e+002
4.612951e+002, 3.590696e+002
4.617772e+002, 3.590145e+002
4.622593e+002, 3.593085e+002
4.627415e+002, 3.595934e+002
4.632236e+002, 3.598817e+002
4.637057e+002, 3.600102e+002
4.641878e+002, 3.597288e+002
4.646699e+002, 3.591941e+002
4.651520e+002, 3.589517e+002
4.656342e+002, 3.595053e+002
4.661163e+002, 3.600897e+002
4.665984e+002, 3.603394e+002
4.670805e+002, 3.600406e+002
4.675626e+002, 3.599555e+002
4.680447e+002, 3.602699e+002
4.685269e+002, 3.607001e+002
4.690090e+002, 3.609600e+002
4.694911e+002, 3.609625e+002
4.699732e+002, 3.609423e+002
4.704553e+002, 3.608720e+002
4.709374e+002, 3.608050e+002
4.714196e+002, 3.610680e+002
4.719017e+002, 3.618195e+002
4.723838e+002, 3.623928e+002
4.728659e+002, 3.621985e+002
4.733480e+002, 3.612322e+002
4.738301e+002, 3.610511e+002
4.743123e+002, 3.617779e+002
4.747944e+002, 3.628807e+002
4.752765e+002, 3.639887e+002
4.757586e+002, 3.650036e+002
4.762407e+002, 3.653390e+002
4.767228e+002, 3.644463e+002
4.772050e+002, 3.632021e+002
4.776871e+002, 3.630831e+002
4.781692e+002, 3.638983e+002
4.786513e+002, 3.647212e+002
4.791334e+002, 3.650231e+002
4.796155e+002, 3.650140e+002
4.800977e+002, 3.647999e+002
4.805798e+002, 3.643373e+002
4.810619e+002, 3.641398e+002
4.815440e+002, 3.646919e+002
4.820261e+002, 3.656221e+002
4.825082e+002, 3.665035e+002
4.829904e+002, 3.673138e+002
4.834725e+002, 3.679492e+002
4.839546e+002, 3.684505e+002
4.844367e+002, 3.687727e+002
4.849188e+002, 3.687189e+002
4.854009e+002, 3.678314e+002
4.858831e+002, 3.669355e+002
4.863652e+002, 3.663200e+002
4.868473e+002, 3.660094e+002
4.873294e+002, 3.659003e+002
4.878115e+002, 3.660831e+002
4.882936e+002, 3.663708e+002
4.887758e+002, 3.665999e+002
4.892579e+002, 3.668043e+002
4.897400e+002, 3.667974e+002
4.902221e+002, 3.664656e+002
4.907042e+002, 3.659495e+002
4.911863e+002, 3.657095e+002
4.916685e+002, 3.657676e+002
4.921506e+002, 3.658703e+002
4.926327e+002, 3.658569e+002
4.931148e+002, 3.657702e+002
4.935969e+002, 3.658542e+002
4.940790e+002, 3.661407e+002
4.945612e+002, 3.663683e+002
4.950433e+002, 3.661528e+002
4.955254e+002, 3.657018e+002
4.960075e+002, 3.654515e+002
4.964896e+002, 3.655250e+002
4.969717e+002, 3.658543e+002
4.974539e+002, 3.665971e+002
4.979360e+002, 3.675695e+002
4.984181e+002, 3.682622e+002
4.989002e+002, 3.682253e+002
4.993823e+002, 3.679956e+002
4.998644e+002, 3.677916e+002
5.003466e+002, 3.676056e+002
5.008287e+002, 3.677720e+002
5.013108e+002, 3.688228e+002
5.017929e+002, 3.700030e+002
5.022750e+002, 3.707343e+002
5.027571e+002, 3.704888e+002
5.032393e+002, 3.703742e+002
5.037214e+002, 3.706117e+002
5.042035e+002, 3.709638e+002
5.046856e+002, 3.708784e+002
5.051677e+002, 3.699786e+002
5.056498e+002, 3.693448e+002
5.061320e+002, 3.693886e+002
5.066141e+002, 3.700798e+002
5.070962e+002, 3.705457e+002
5.075783e+002, 3.707795e+002
5.080604e+002, 3.708331e+002
5.085425e+002, 3.706660e+002
5.090247e+002, 3.703087e+002
5.095068e+002, 3.700633e+002
5.099889e+002, 3.699325e+002
5.104710e+002, 3.700333e+002
5.109531e+002, 3.707981e+002
5.114352e+002, 3.720045e+002
5.119174e+002, 3.728292e+002
5.123995e+002, 3.727035e+002
5.128816e+002, 3.721552e+002
5.133637e+002, 3.716332e+002
5.138458e+002, 3.711671e+002
5.143279e+002, 3.709511e+002
5.148101e+002, 3.711038e+002
5.152922e+002, 3.715407e+002
5.157743e+002, 3.722682e+002
5.162564e+002, 3.734034e+002
5.167385e+002, 3.743875e+002
5.172206e+002, 3.750685e+002
5.177028e+002, 3.754691e+002
5.181849e+002, 3.756110e+002
5.186670e+002, 3.751884e+002
5.191491e+002, 3.748667e+002
5.196312e+002, 3.748093e+002
5.201133e+002, 3.749472e+002
5.205955e+002, 3.749453e+002
5.210776e+002, 3.746266e+002
5.215597e+002, 3.744919e+002
5.220418e+002, 3.749036e+002
5.225239e+002, 3.759810e+002
5.230060e+002, 3.762306e+002
5.234882e+002, 3.753715e+002
5.239703e+002, 3.744930e+002
5.244524e+002, 3.751126e+002
5.249345e+002, 3.770732e+002
5.254166e+002, 3.779811e+002
5.258987e+002, 3.770515e+002
5.263809e+002, 3.755528e+002
5.268630e+002, 3.756706e+002
5.273451e+002, 3.770320e+002
5.278272e+002, 3.781086e+002
5.283093e+002, 3.776436e+002
5.287914e+002, 3.767739e+002
5.292736e+002, 3.768694e+002
5.297557e+002, 3.778813e+002
5.302378e+002, 3.787945e+002
5.307199e+002, 3.788717e+002
5.312020e+002, 3.786978e+002
5.316841e+002, 3.788115e+002
5.321663e+002, 3.796088e+002
5.326484e+002, 3.800284e+002
5.331305e+002, 3.793216e+002
5.336126e+002, 3.782281e+002
5.340947e+002, 3.778089e+002
5.345768e+002, 3.790872e+002
5.350590e+002, 3.799013e+002
5.355411e+002, 3.797891e+002
5.360232e+002, 3.789067e+002
5.365053e+002, 3.781404e+002
5.369874e+002, 3.774661e+002
5.374695e+002, 3.769961e+002
5.379517e+002, 3.768025e+002
5.384338e+002, 3.768902e+002
5.389159e+002, 3.772459e+002
5.393980e+002, 3.779438e+002
5.398801e+002, 3.786109e+002
5.403622e+002, 3.787226e+002
5.408444e+002, 3.783965e+002
5.413265e+002, 3.782399e+002
5.418086e+002, 3.784902e+002
5.422907e+002, 3.787410e+002
5.427728e+002, 3.782573e+002
5.432549e+002, 3.773066e+002
5.437371e+002, 3.766737e+002
5.442192e+002, 3.772372e+002
5.447013e+002, 3.779092e+002
5.451834e+002, 3.777445e+002
5.456655e+002, 3.767771e+002
5.461476e+002, 3.759343e+002
5.466298e+002, 3.756125e+002
5.471119e+002, 3.755475e+002
5.475940e+002, 3.755805e+002
5.480761e+002, 3.757345e+002
5.485582e+002, 3.759116e+002
5.490403e+002, 3.763286e+002
5.495225e+002, 3.766609e+002
5.500046e+002, 3.764349e+002
5.504867e+002, 3.751218e+002
5.509688e+002, 3.743313e+002
5.514509e+002, 3.744148e+002
5.519330e+002, 3.751915e+002
5.524152e+002, 3.762019e+002
5.528973e+002, 3.775816e+002
5.533794e+002, 3.783930e+002
5.538615e+002, 3.776928e+002
5.543436e+002, 3.758746e+002
5.548257e+002, 3.752723e+002
5.553079e+002, 3.759521e+002
5.557900e+002, 3.767449e+002
5.562721e+002, 3.765078e+002
5.567542e+002, 3.756537e+002
5.572363e+002, 3.748976e+002
5.577184e+002, 3.743517e+002
5.582006e+002, 3.740458e+002
5.586827e+002, 3.741255e+002
5.591648e+002, 3.744449e+002
5.596469e+002, 3.747578e+002
5.601290e+002, 3.752508e+002
5.606111e+002, 3.754479e+002
5.610933e+002, 3.747871e+002
5.615754e+002, 3.734825e+002
5.620575e+002, 3.729557e+002
5.625396e+002, 3.743363e+002
5.630217e+002, 3.756675e+002
5.635038e+002, 3.761120e+002
5.639860e+002, 3.753738e+002
5.644681e+002, 3.751862e+002
5.649502e+002, 3.758080e+002
5.654323e+002, 3.765762e+002
5.659144e+002, 3.768113e+002
5.663965e+002, 3.764704e+002
5.668787e+002, 3.761082e+002
5.673608e+002, 3.757534e+002
5.678429e+002, 3.755108e+002
5.683250e+002, 3.756924e+002
5.688071e+002, 3.762129e+002
5.692892e+002, 3.765951e+002
5.697714e+002, 3.764717e+002
5.702535e+002, 3.761935e+002
5.707356e+002, 3.762997e+002
5.712177e+002, 3.767225e+002
5.716998e+002, 3.770595e+002
5.721819e+002, 3.769176e+002
5.726641e+002, 3.767032e+002
5.731462e+002, 3.768077e+002
5.736283e+002, 3.773764e+002
5.741104e+002, 3.776956e+002
5.745925e+002, 3.771114e+002
5.750746e+002, 3.764090e+002
5.755568e+002, 3.763054e+002
5.760389e+002, 3.774707e+002
5.765210e+002, 3.783970e+002
5.770031e+002, 3.791073e+002
5.774852e+002, 3.795170e+002
5.779673e+002, 3.793675e+002
5.784495e+002, 3.784410e+002
5.789316e+002, 3.776420e+002
5.794137e+002, 3.771894e+002
5.798958e+002, 3.770969e+002
5.803779e+002, 3.775558e+002
5.808600e+002, 3.785923e+002
5.813422e+002, 3.795651e+002
5.818243e+002, 3.800102e+002
5.823064e+002, 3.800769e+002
5.827885e+002, 3.800424e+002
5.832706e+002, 3.799180e+002
5.837527e+002, 3.798218e+002
5.842349e+002, 3.797347e+002
5.847170e+002, 3.797695e+002
5.851991e+002, 3.801336e+002
5.856812e+002, 3.813158e+002
5.861633e+002, 3.820760e+002
5.866454e+002, 3.814804e+002
5.871276e+002, 3.801621e+002
5.876097e+002, 3.792836e+002
5.880918e+002, 3.793249e+002
5.885739e+002, 3.795210e+002
5.890560e+002, 3.797095e+002
5.895381e+002, 3.799088e+002
5.900203e+002, 3.803213e+002
5.905024e+002, 3.812064e+002
5.909845e+002, 3.817920e+002
5.914666e+002, 3.815200e+002
5.919487e+002, 3.803777e+002
5.924308e+002, 3.798808e+002
5.929130e+002, 3.801073e+002
5.933951e+002, 3.806042e+002
5.938772e+002, 3.810256e+002
5.943593e+002, 3.813638e+002
5.948414e+002, 3.815217e+002
5.953235e+002, 3.814079e+002
5.958057e+002, 3.813687e+002
5.962878e+002, 3.819286e+002
5.967699e+002, 3.827958e+002
5.972520e+002, 3.834166e+002
5.977341e+002, 3.835042e+002
5.982162e+002, 3.833578e+002
5.986984e+002, 3.829590e+002
5.991805e+002, 3.824080e+002
5.996626e+002, 3.820560e+002
6.001447e+002, 3.818579e+002
6.006268e+002, 3.819922e+002
6.011089e+002, 3.827008e+002
6.015911e+002, 3.840804e+002
6.020732e+002, 3.847758e+002
6.025553e+002, 3.844633e+002
6.030374e+002, 3.839753e+002
6.035195e+002, 3.838787e+002
6.040016e+002, 3.841925e+002
6.044838e+002, 3.847205e+002
6.049659e+002, 3.855243e+002
6.054480e+002, 3.862945e+002
6.059301e+002, 3.865419e+002
6.064122e+002, 3.863878e+002
6.068943e+002, 3.863348e+002
6.073765e+002, 3.865626e+002
6.078586e+002, 3.868739e+002
6.083407e+002, 3.870524e+002
6.088228e+002, 3.871399e+002
6.093049e+002, 3.872354e+002
6.097870e+002, 3.875646e+002
6.102692e+002, 3.877513e+002
6.107513e+002, 3.873782e+002
6.112334e+002, 3.865240e+002
6.117155e+002, 3.861392e+002
6.121976e+002, 3.867189e+002
6.126797e+002, 3.875459e+002
6.131619e+002, 3.883432e+002
6.136440e+002, 3.891622e+002
6.141261e+002, 3.897464e+002
6.146082e+002, 3.900662e+002
6.150903e+002, 3.902116e+002
6.155724e+002, 3.901963e+002
6.160546e+002, 3.900087e+002
6.165367e+002, 3.900362e+002
6.170188e+002, 3.903730e+002
6.175009e+002, 3.908082e+002
6.179830e+002, 3.910519e+002
6.184651e+002, 3.911350e+002
6.189473e+002, 3.911589e+002
6.194294e+002, 3.911101e+002
6.199115e+002, 3.910715e+002
6.203936e+002, 3.910484e+002
6.208757e+002, 3.910901e+002
6.213578e+002, 3.913437e+002
6.218400e+002, 3.920992e+002
6.223221e+002, 3.928866e+002
6.228042e+002, 3.932910e+002
6.232863e+002, 3.932904e+002
6.237684e+002, 3.939284e+002
6.242505e+002, 3.962234e+002
6.247327e+002, 3.982904e+002
6.252148e+002, 3.990734e+002
6.256969e+002, 3.981330e+002
6.261790e+002, 3.977227e+002
6.266611e+002, 3.979534e+002
6.271432e+002, 3.984914e+002
6.276254e+002, 3.990768e+002
6.281075e+002, 3.996975e+002
6.285896e+002, 4.000955e+002
6.290717e+002, 4.001282e+002
6.295538e+002, 4.001932e+002
6.300359e+002, 4.010284e+002
6.305181e+002, 4.023219e+002
6.310002e+002, 4.033041e+002
6.314823e+002, 4.033087e+002
6.319644e+002, 4.032389e+002
6.324465e+002, 4.037626e+002
6.329286e+002, 4.047411e+002
6.334108e+002, 4.057283e+002
6.338929e+002, 4.068161e+002
6.343750e+002, 4.076631e+002
6.348571e+002, 4.079725e+002
6.353392e+002, 4.077059e+002
6.358214e+002, 4.079319e+002
6.363035e+002, 4.090478e+002
6.367856e+002, 4.101040e+002
6.372677e+002, 4.104962e+002
6.377498e+002, 4.101071e+002
6.382319e+002, 4.099058e+002
6.387141e+002, 4.098489e+002
6.391962e+002, 4.101555e+002
6.396783e+002, 4.114013e+002
6.401604e+002, 4.132752e+002
6.406425e+002, 4.144194e+002
6.411246e+002, 4.143901e+002
6.416068e+002, 4.142778e+002
6.420889e+002, 4.153706e+002
6.425710e+002, 4.171338e+002
6.430531e+002, 4.186237e+002
6.435352e+002, 4.195520e+002
6.440173e+002, 4.200773e+002
6.444995e+002, 4.198555e+002
6.449816e+002, 4.192487e+002
6.454637e+002, 4.193031e+002
6.459458e+002, 4.210716e+002
6.464279e+002, 4.224975e+002
6.469100e+002, 4.227657e+002
6.473922e+002, 4.220446e+002
6.478743e+002, 4.228042e+002
6.483564e+002, 4.257089e+002
6.488385e+002, 4.281248e+002
6.493206e+002, 4.280328e+002
6.498027e+002, 4.258052e+002
6.502849e+002, 4.248906e+002
6.507670e+002, 4.253517e+002
6.512491e+002, 4.263378e+002
6.517312e+002, 4.273418e+002
6.522133e+002, 4.282786e+002
6.526954e+002, 4.290083e+002
6.531776e+002, 4.294783e+002
6.536597e+002, 4.298427e+002
6.541418e+002, 4.300803e+002
6.546239e+002, 4.303221e+002
6.551060e+002, 4.307215e+002
6.555881e+002, 4.316032e+002
6.560703e+002, 4.322943e+002
6.565524e+002, 4.326961e+002
6.570345e+002, 4.328471e+002
6.575166e+002, 4.327485e+002
6.579987e+002, 4.322227e+002
6.584808e+002, 4.319009e+002
6.589630e+002, 4.319731e+002
6.594451e+002, 4.323295e+002
6.599272e+002, 4.326916e+002
6.604093e+002, 4.330606e+002
6.608914e+002, 4.331555e+002
6.613735e+002, 4.325641e+002
6.618557e+002, 4.316969e+002
6.623378e+002, 4.313795e+002
6.628199e+002, 4.315569e+002
6.633020e+002, 4.316881e+002
6.637841e+002, 4.314834e+002
6.642662e+002, 4.310588e+002
6.647484e+002, 4.303830e+002
6.652305e+002, 4.293722e+002
6.657126e+002, 4.287350e+002
6.661947e+002, 4.290340e+002
6.666768e+002, 4.295031e+002
6.671589e+002, 4.295948e+002
6.676411e+002, 4.291475e+002
6.681232e+002, 4.286037e+002
6.686053e+002, 4.277778e+002
6.690874e+002, 4.270991e+002
6.695695e+002, 4.274063e+002
6.700516e+002, 4.286819e+002
6.705338e+002, 4.290503e+002
6.710159e+002, 4.278949e+002
6.714980e+002, 4.262560e+002
6.719801e+002, 4.258036e+002
6.724622e+002, 4.261523e+002
6.729443e+002, 4.262535e+002
6.734265e+002, 4.251729e+002
6.739086e+002, 4.241733e+002
6.743907e+002, 4.244402e+002
6.748728e+002, 4.255285e+002
6.753549e+002, 4.260640e+002
6.758370e+002, 4.249910e+002
6.763192e+002, 4.239574e+002
6.768013e+002, 4.236108e+002
6.772834e+002, 4.238893e+002
6.777655e+002, 4.240808e+002
6.782476e+002, 4.241783e+002
6.787297e+002, 4.242089e+002
6.792119e+002, 4.243032e+002
6.796940e+002, 4.244288e+002
6.801761e+002, 4.236666e+002
6.806582e+002, 4.219176e+002
6.811403e+002, 4.203606e+002
6.816224e+002, 4.202859e+002
6.821046e+002, 4.210270e+002
6.825867e+002, 4.213023e+002
6.830688e+002, 4.209080e+002
6.835509e+002, 4.204349e+002
6.840330e+002, 4.201161e+002
6.845151e+002, 4.200071e+002
6.849973e+002, 4.202025e+002
6.854794e+002, 4.212198e+002
6.859615e+002, 4.217080e+002
6.864436e+002, 4.210558e+002
6.869257e+002, 4.199581e+002
6.874078e+002, 4.191786e+002
6.878900e+002, 4.187102e+002
6.883721e+002, 4.186617e+002
6.888542e+002, 4.192970e+002
6.893363e+002, 4.200610e+002
6.898184e+002, 4.195188e+002
6.903005e+002, 4.178028e+002
6.907827e+002, 4.165215e+002
6.912648e+002, 4.164489e+002
6.917469e+002, 4.169879e+002
6.922290e+002, 4.175381e+002
6.927111e+002, 4.180154e+002
6.931932e+002, 4.181234e+002
6.936754e+002, 4.172451e+002
6.941575e+002, 4.163643e+002
6.946396e+002, 4.161651e+002
6.951217e+002, 4.165914e+002
6.956038e+002, 4.167097e+002
6.960859e+002, 4.160450e+002
6.965681e+002, 4.153937e+002
6.970502e+002, 4.150768e+002
6.975323e+002, 4.151123e+002
6.980144e+002, 4.150001e+002
6.984965e+002, 4.146956e+002
6.989786e+002, 4.144133e+002
6.994608e+002, 4.143759e+002
6.999429e+002, 4.145137e+002
7.004250e+002, 4.144925e+002
7.009071e+002, 4.142914e+002
7.013892e+002, 4.140297e+002
7.018713e+002, 4.139876e+002
7.023535e+002, 4.138717e+002
7.028356e+002, 4.131313e+002
7.033177e+002, 4.112465e+002
7.037998e+002, 4.100697e+002
7.042819e+002, 4.109955e+002
7.047640e+002, 4.126504e+002
7.052462e+002, 4.135516e+002
7.057283e+002, 4.132116e+002
7.062104e+002, 4.127720e+002
7.066925e+002, 4.121874e+002
7.071746e+002, 4.116042e+002
7.076567e+002, 4.113126e+002
7.081389e+002, 4.113388e+002
7.086210e+002, 4.112150e+002
7.091031e+002, 4.107747e+002
7.095852e+002, 4.102378e+002
7.100673e+002, 4.099117e+002
7.105494e+002, 4.097904e+002
7.110316e+002, 4.098450e+002
7.115137e+002, 4.103991e+002
7.119958e+002, 4.108222e+002
7.124779e+002, 4.103863e+002
7.129600e+002, 4.094449e+002
7.134421e+002, 4.090819e+002
7.139243e+002, 4.102572e+002
7.144064e+002, 4.113390e+002
7.148885e+002, 4.118951e+002
7.153706e+002, 4.119523e+002
7.158527e+002, 4.115576e+002
7.163348e+002, 4.104387e+002
7.168170e+002, 4.096988e+002
7.172991e+002, 4.101348e+002
7.177812e+002, 4.114271e+002
7.182633e+002, 4.119178e+002
7.187454e+002, 4.116195e+002
7.192275e+002, 4.109552e+002
7.197097e+002, 4.097407e+002
7.201918e+002, 4.085894e+002
7.206739e+002, 4.083012e+002
7.211560e+002, 4.089467e+002
7.216381e+002, 4.098377e+002
7.221202e+002, 4.111456e+002
7.226024e+002, 4.122279e+002
7.230845e+002, 4.125462e+002
7.235666e+002, 4.116895e+002
7.240487e+002, 4.112534e+002
7.245308e+002, 4.113558e+002
7.250129e+002, 4.117216e+002
7.254951e+002, 4.122765e+002
7.259772e+002, 4.130663e+002
7.264593e+002, 4.131235e+002
7.269414e+002, 4.122453e+002
7.274235e+002, 4.112422e+002
7.279056e+002, 4.111794e+002
7.283878e+002, 4.116706e+002
7.288699e+002, 4.118216e+002
7.293520e+002, 4.112628e+002
7.298341e+002, 4.108162e+002
7.303162e+002, 4.110929e+002
7.307983e+002, 4.117870e+002
7.312805e+002, 4.125159e+002
7.317626e+002, 4.135674e+002
7.322447e+002, 4.141539e+002
7.327268e+002, 4.140910e+002
7.332089e+002, 4.136077e+002
7.336910e+002, 4.129467e+002
7.341732e+002, 4.119443e+002
7.346553e+002, 4.115778e+002
7.351374e+002, 4.122200e+002
7.356195e+002, 4.133511e+002
7.361016e+002, 4.140524e+002
7.365837e+002, 4.143678e+002
7.370659e+002, 4.144815e+002
7.375480e+002, 4.143234e+002
7.380301e+002, 4.141436e+002
7.385122e+002, 4.142188e+002
7.389943e+002, 4.144497e+002
7.394764e+002, 4.145859e+002
7.399586e+002, 4.144786e+002
7.404407e+002, 4.143243e+002
7.409228e+002, 4.140758e+002
7.414049e+002, 4.138073e+002
7.418870e+002, 4.139101e+002
7.423691e+002, 4.145325e+002
7.428513e+002, 4.151291e+002
7.433334e+002, 4.155028e+002
7.438155e+002, 4.156909e+002
7.442976e+002, 4.158576e+002
7.447797e+002, 4.160003e+002
7.452618e+002, 4.160217e+002
7.457440e+002, 4.155395e+002
7.462261e+002, 4.151022e+002
7.467082e+002, 4.156014e+002
7.471903e+002, 4.169201e+002
7.476724e+002, 4.178585e+002
7.481545e+002, 4.175946e+002
7.486367e+002, 4.170519e+002
7.491188e+002, 4.166881e+002
7.496009e+002, 4.165375e+002
7.500830e+002, 4.164062e+002
7.505651e+002, 4.162106e+002
7.510472e+002, 4.161724e+002
7.515294e+002, 4.164835e+002
7.520115e+002, 4.171308e+002
7.524936e+002, 4.176811e+002
7.529757e+002, 4.181385e+002
7.534578e+002, 4.184722e+002
7.539399e+002, 4.186442e+002
7.544221e+002, 4.186786e+002
7.549042e+002, 4.185536e+002
7.553863e+002, 4.182537e+002
7.558684e+002, 4.180365e+002
7.563505e+002, 4.180522e+002
7.568326e+002, 4.181955e+002
7.573148e+002, 4.184184e+002
7.577969e+002, 4.188405e+002
7.582790e+002, 4.189693e+002
7.587611e+002, 4.185598e+002
7.592432e+002, 4.181896e+002
7.597253e+002, 4.184307e+002
7.602075e+002, 4.192990e+002
7.606896e+002, 4.200880e+002
7.611717e+002, 4.207804e+002
7.616538e+002, 4.212194e+002
7.621359e+002, 4.210701e+002
7.626180e+002, 4.205980e+002
7.631002e+002, 4.202255e+002
7.635823e+002, 4.199626e+002
7.640644e+002, 4.200855e+002
7.645465e+002, 4.213578e+002
7.650286e+002, 4.228094e+002
7.655107e+002, 4.233829e+002
7.659929e+002, 4.219733e+002
7.664750e+002, 4.211500e+002
7.669571e+002, 4.210499e+002
7.674392e+002, 4.214161e+002
7.679213e+002, 4.220641e+002
7.684034e+002, 4.230184e+002
7.688856e+002, 4.235444e+002
7.693677e+002, 4.233932e+002
7.698498e+002, 4.231906e+002
7.703319e+002, 4.238861e+002
7.708140e+002, 4.251143e+002
7.712961e+002, 4.261288e+002
7.717783e+002, 4.267147e+002
7.722604e+002, 4.270019e+002
7.727425e+002, 4.267948e+002
7.732246e+002, 4.264060e+002
7.737067e+002, 4.263204e+002
7.741888e+002, 4.269528e+002
7.746710e+002, 4.273356e+002
7.751531e+002, 4.272497e+002
7.756352e+002, 4.269972e+002
7.761173e+002, 4.272216e+002
7.765994e+002, 4.279435e+002
7.770815e+002, 4.283620e+002
7.775637e+002, 4.282260e+002
7.780458e+002, 4.278296e+002
7.785279e+002, 4.274129e+002
7.790100e+002, 4.270714e+002
7.794921e+002, 4.270234e+002
7.799742e+002, 4.274516e+002
7.804564e+002, 4.280792e+002
7.809385e+002, 4.289880e+002
7.814206e+002, 4.299843e+002
7.819027e+002, 4.306374e+002
7.823848e+002, 4.307652e+002
7.828669e+002, 4.308047e+002
7.833491e+002, 4.307444e+002
7.838312e+002, 4.306987e+002
7.843133e+002, 4.310872e+002
7.847954e+002, 4.318953e+002
7.852775e+002, 4.323270e+002
7.857596e+002, 4.319583e+002
7.862418e+002, 4.313072e+002
7.867239e+002, 4.309694e+002
7.872060e+002, 4.309221e+002
7.876881e+002, 4.310989e+002
7.881702e+002, 4.317238e+002
7.886523e+002, 4.322953e+002
7.891345e+002, 4.324820e+002
7.896166e+002, 4.324563e+002
7.900987e+002, 4.327831e+002
7.905808e+002, 4.338112e+002
7.910629e+002, 4.344832e+002
7.915450e+002, 4.344914e+002
7.920272e+002, 4.340229e+002
7.925093e+002, 4.335141e+002
7.929914e+002, 4.329738e+002
7.934735e+002, 4.325978e+002
7.939556e+002, 4.324610e+002
7.944377e+002, 4.325289e+002
7.949199e+002, 4.327953e+002
7.954020e+002, 4.332364e+002
7.958841e+002, 4.337758e+002
7.963662e+002, 4.347144e+002
7.968483e+002, 4.353968e+002
7.973304e+002, 4.352596e+002
7.978126e+002, 4.346771e+002
7.982947e+002, 4.349174e+002
7.987768e+002, 4.364322e+002
7.992589e+002, 4.374778e+002
7.997410e+002, 4.374157e+002
8.002231e+002, 4.366920e+002
8.007053e+002, 4.364072e+002
8.011874e+002, 4.365107e+002
8.016695e+002, 4.367113e+002
8.021516e+002, 4.370624e+002
8.026337e+002, 4.372773e+002
8.031158e+002, 4.369028e+002
8.035980e+002, 4.361777e+002
8.040801e+002, 4.357428e+002
8.045622e+002, 4.358700e+002
8.050443e+002, 4.362448e+002
8.055264e+002, 4.368622e+002
8.060085e+002, 4.376393e+002
8.064907e+002, 4.383466e+002
8.069728e+002, 4.390070e+002
8.074549e+002, 4.394489e+002
8.079370e+002, 4.395299e+002
8.084191e+002, 4.394545e+002
8.089012e+002, 4.395689e+002
8.093834e+002, 4.398823e+002
8.098655e+002, 4.404272e+002
8.103476e+002, 4.417705e+002
8.108297e+002, 4.428314e+002
8.113118e+002, 4.427587e+002
8.117939e+002, 4.418612e+002
8.122761e+002, 4.410432e+002
8.127582e+002, 4.402886e+002
8.132403e+002, 4.398400e+002
8.137224e+002, 4.397524e+002
8.142045e+002, 4.400028e+002
8.146866e+002, 4.407115e+002
8.151688e+002, 4.418778e+002
8.156509e+002, 4.426017e+002
8.161330e+002, 4.422649e+002
8.166151e+002, 4.416685e+002
8.170972e+002, 4.421358e+002
8.175793e+002, 4.432953e+002
8.180615e+002, 4.442056e+002
8.185436e+002, 4.441622e+002
8.190257e+002, 4.440925e+002
8.195078e+002, 4.444248e+002
8.199899e+002, 4.449909e+002
8.204720e+002, 4.453258e+002
8.209542e+002, 4.454034e+002
8.214363e+002, 4.452610e+002
8.219184e+002, 4.447783e+002
8.224005e+002, 4.442208e+002
8.228826e+002, 4.442402e+002
8.233647e+002, 4.447600e+002
8.238469e+002, 4.453581e+002
8.243290e+002, 4.460405e+002
8.248111e+002, 4.465201e+002
8.252932e+002, 4.463163e+002
8.257753e+002, 4.457571e+002
8.262574e+002, 4.454941e+002
8.267396e+002, 4.460836e+002
8.272217e+002, 4.465218e+002
8.277038e+002, 4.465953e+002
8.281859e+002, 4.464499e+002
8.286681e+002, 4.463008e+002
8.291502e+002, 4.461141e+002
8.296323e+002, 4.461720e+002
8.301144e+002, 4.465532e+002
8.305966e+002, 4.471708e+002
8.310787e+002, 4.480323e+002
8.315608e+002, 4.490231e+002
8.320429e+002, 4.499362e+002
8.325250e+002, 4.509947e+002
8.330071e+002, 4.514590e+002
8.334893e+002, 4.503264e+002
8.339714e+002, 4.485599e+002
8.344535e+002, 4.477178e+002
8.349356e+002, 4.485034e+002
8.354177e+002, 4.489443e+002
8.358998e+002, 4.487582e+002
8.363820e+002, 4.483336e+002
8.368641e+002, 4.481667e+002
8.373462e+002, 4.482620e+002
8.378283e+002, 4.487567e+002
8.383104e+002, 4.498259e+002
8.387925e+002, 4.507373e+002
8.392747e+002, 4.505357e+002
8.397568e+002, 4.498121e+002
8.402389e+002, 4.493917e+002
8.407210e+002, 4.496958e+002
8.412031e+002, 4.499274e+002
8.416852e+002, 4.499171e+002
8.421674e+002, 4.497788e+002
8.426495e+002, 4.495567e+002
8.431316e+002, 4.491900e+002
8.436137e+002, 4.491988e+002
8.440958e+002, 4.497134e+002
8.445779e+002, 4.502660e+002
8.450601e+002, 4.501652e+002
8.455422e+002, 4.497327e+002
8.460243e+002, 4.497350e+002
8.465064e+002, 4.504113e+002
8.469885e+002, 4.508843e+002
8.474706e+002, 4.502473e+002
8.479528e+002, 4.494552e+002
8.484349e+002, 4.494462e+002
8.489170e+002, 4.508068e+002
8.493991e+002, 4.512602e+002
8.498812e+002, 4.504266e+002
8.503633e+002, 4.494240e+002
8.508455e+002, 4.493030e+002
8.513276e+002, 4.498974e+002
8.518097e+002, 4.500233e+002
8.522918e+002, 4.496136e+002
8.527739e+002, 4.492123e+002
8.532560e+002, 4.493424e+002
8.537382e+002, 4.496393e+002
8.542203e+002, 4.497663e+002
8.547024e+002, 4.496806e+002
8.551845e+002, 4.495542e+002
8.556666e+002, 4.492298e+002
8.561487e+002, 4.491013e+002
8.566309e+002, 4.494973e+002
8.571130e+002, 4.503998e+002
8.575951e+002, 4.506213e+002
8.580772e+002, 4.501104e+002
8.585593e+002, 4.495308e+002
8.590414e+002, 4.492875e+002
8.595236e+002, 4.492697e+002
8.600057e+002, 4.493694e+002
8.604878e+002, 4.495573e+002
8.609699e+002, 4.496891e+002
8.614520e+002, 4.497270e+002
8.619341e+002, 4.496646e+002
8.624163e+002, 4.494125e+002
8.628984e+002, 4.490213e+002
8.633805e+002, 4.488929e+002
8.638626e+002, 4.491576e+002
8.643447e+002, 4.492094e+002
8.648268e+002, 4.486075e+002
8.653090e+002, 4.477879e+002
8.657911e+002, 4.480505e+002
8.662732e+002, 4.491371e+002
8.667553e+002, 4.499785e+002
8.672374e+002, 4.498862e+002
8.677195e+002, 4.495209e+002
8.682017e+002, 4.491559e+002
8.686838e+002, 4.488212e+002
8.691659e+002, 4.486257e+002
8.696480e+002, 4.486744e+002
8.701301e+002, 4.486849e+002
8.706122e+002, 4.486791e+002
8.710944e+002, 4.485355e+002
8.715765e+002, 4.478419e+002
8.720586e+002, 4.466953e+002
8.725407e+002, 4.458165e+002
8.730228e+002, 4.454880e+002
8.735049e+002, 4.453766e+002
8.739871e+002, 4.453384e+002
8.744692e+002, 4.452632e+002
8.749513e+002, 4.449778e+002
8.754334e+002, 4.438773e+002
8.759155e+002, 4.433925e+002
8.763976e+002, 4.440224e+002
8.768798e+002, 4.449268e+002
8.773619e+002, 4.450651e+002
8.778440e+002, 4.443823e+002
8.783261e+002, 4.439074e+002
8.788082e+002, 4.438018e+002
8.792903e+002, 4.436283e+002
8.797725e+002, 4.425887e+002
8.802546e+002, 4.412980e+002
8.807367e+002, 4.407567e+002
8.812188e+002, 4.413173e+002
8.817009e+002, 4.417278e+002
8.821830e+002, 4.414091e+002
8.826652e+002, 4.408812e+002
8.831473e+002, 4.404854e+002
8.836294e+002, 4.402218e+002
8.841115e+002, 4.400787e+002
8.845936e+002, 4.400582e+002
8.850757e+002, 4.401733e+002
8.855579e+002, 4.406874e+002
8.860400e+002, 4.412703e+002
8.865221e+002, 4.412340e+002
8.870042e+002, 4.405764e+002
8.874863e+002, 4.396237e+002
8.879684e+002, 4.380018e+002
8.884506e+002, 4.366374e+002
8.889327e+002, 4.362484e+002
8.894148e+002, 4.367570e+002
8.898969e+002, 4.367945e+002
8.903790e+002, 4.361440e+002
8.908611e+002, 4.356800e+002
8.913433e+002, 4.358495e+002
8.918254e+002, 4.363895e+002
8.923075e+002, 4.366839e+002
8.927896e+002, 4.367431e+002
8.932717e+002, 4.366297e+002
8.937538e+002, 4.361410e+002
8.942360e+002, 4.357086e+002
8.947181e+002, 4.356944e+002
8.952002e+002, 4.359233e+002
8.956823e+002, 4.359381e+002
8.961644e+002, 4.356366e+002
8.966465e+002, 4.352660e+002
8.971287e+002, 4.348138e+002
8.976108e+002, 4.343919e+002
8.980929e+002, 4.344183e+002
8.985750e+002, 4.347230e+002
8.990571e+002, 4.343798e+002
8.995392e+002, 4.328788e+002
9.000214e+002, 4.314850e+002
9.005035e+002, 4.313190e+002
9.009856e+002, 4.317749e+002
9.014677e+002, 4.321486e+002
9.019498e+002, 4.322419e+002
9.024319e+002, 4.323695e+002
9.029141e+002, 4.326026e+002
9.033962e+002, 4.327728e+002
9.038783e+002, 4.326678e+002
9.043604e+002, 4.323235e+002
9.048425e+002, 4.321363e+002
9.053246e+002, 4.321352e+002
9.058068e+002, 4.321215e+002
9.062889e+002, 4.320169e+002
9.067710e+002, 4.317608e+002
9.072531e+002, 4.311778e+002
9.077352e+002, 4.302188e+002
9.082173e+002, 4.296176e+002
9.086995e+002, 4.299396e+002
9.091816e+002, 4.299587e+002
9.096637e+002, 4.288937e+002
9.101458e+002, 4.270299e+002
9.106279e+002, 4.265416e+002
9.111100e+002, 4.273603e+002
9.115922e+002, 4.280591e+002
9.120743e+002, 4.276369e+002
9.125564e+002, 4.268645e+002
9.130385e+002, 4.263042e+002
9.135206e+002, 4.260373e+002
9.140027e+002, 4.262682e+002
9.144849e+002, 4.276793e+002
9.149670e+002, 4.288170e+002
9.154491e+002, 4.294214e+002
9.159312e+002, 4.296052e+002
9.164133e+002, 4.295682e+002
9.168954e+002, 4.293096e+002
9.173776e+002, 4.288407e+002
9.178597e+002, 4.280539e+002
9.183418e+002, 4.273790e+002
9.188239e+002, 4.274492e+002
9.193060e+002, 4.278706e+002
9.197881e+002, 4.280678e+002
9.202703e+002, 4.276801e+002
9.207524e+002, 4.275277e+002
9.212345e+002, 4.279046e+002
9.217166e+002, 4.283619e+002
9.221987e+002, 4.284654e+002
9.226808e+002, 4.281901e+002
9.231630e+002, 4.283843e+002
9.236451e+002, 4.291348e+002
9.241272e+002, 4.296193e+002
9.246093e+002, 4.286982e+002
9.250914e+002, 4.273935e+002
9.255735e+002, 4.268950e+002
9.260557e+002, 4.272903e+002
9.265378e+002, 4.278119e+002
9.270199e+002, 4.288326e+002
9.275020e+002, 4.292500e+002
9.279841e+002, 4.283491e+002
9.284662e+002, 4.264888e+002
9.289484e+002, 4.259087e+002
9.294305e+002, 4.265927e+002
9.299126e+002, 4.275201e+002
9.303947e+002, 4.284132e+002
9.308768e+002, 4.290919e+002
9.313589e+002, 4.292947e+002
9.318411e+002, 4.291185e+002
9.323232e+002, 4.287671e+002
9.328053e+002, 4.279667e+002
9.332874e+002, 4.274799e+002
9.337695e+002, 4.276458e+002
9.342516e+002, 4.279834e+002
9.347338e+002, 4.276145e+002
9.352159e+002, 4.265421e+002
9.356980e+002, 4.260838e+002
9.361801e+002, 4.265376e+002
9.366622e+002, 4.271392e+002
9.371443e+002, 4.271264e+002
9.376265e+002, 4.267983e+002
9.381086e+002, 4.264540e+002
9.385907e+002, 4.260647e+002
9.390728e+002, 4.259853e+002
9.395549e+002, 4.263405e+002
9.400370e+002, 4.269150e+002
9.405192e+002, 4.277215e+002
9.410013e+002, 4.287199e+002
9.414834e+002, 4.290305e+002
9.419655e+002, 4.286675e+002
9.424476e+002, 4.283492e+002
9.429297e+002, 4.287620e+002
9.434119e+002, 4.292884e+002
9.438940e+002, 4.293563e+002
9.443761e+002, 4.290064e+002
9.448582e+002, 4.284997e+002
9.453403e+002, 4.277925e+002
9.458224e+002, 4.270407e+002
9.463046e+002, 4.261190e+002
9.467867e+002, 4.253047e+002
9.472688e+002, 4.254614e+002
9.477509e+002, 4.264547e+002
9.482330e+002, 4.271359e+002
9.487151e+002, 4.270944e+002
9.491973e+002, 4.268990e+002
9.496794e+002, 4.270441e+002
9.501615e+002, 4.273506e+002
9.506436e+002, 4.276118e+002
9.511257e+002, 4.278535e+002
9.516078e+002, 4.278859e+002
9.520900e+002, 4.275890e+002
9.525721e+002, 4.272890e+002
9.530542e+002, 4.273569e+002
9.535363e+002, 4.276954e+002
9.540184e+002, 4.276410e+002
9.545005e+002, 4.271811e+002
9.549827e+002, 4.267162e+002
9.554648e+002, 4.263546e+002
9.559469e+002, 4.262303e+002
9.564290e+002, 4.264900e+002
9.569111e+002, 4.271215e+002
9.573932e+002, 4.278493e+002
9.578754e+002, 4.288213e+002
9.583575e+002, 4.294827e+002
9.588396e+002, 4.295552e+002
9.593217e+002, 4.293047e+002
9.598038e+002, 4.293890e+002
9.602859e+002, 4.297070e+002
9.607681e+002, 4.299084e+002
9.612502e+002, 4.298273e+002
9.617323e+002, 4.296564e+002
9.622144e+002, 4.293644e+002
9.626965e+002, 4.291188e+002
9.631786e+002, 4.291749e+002
9.636608e+002, 4.297566e+002
9.641429e+002, 4.299648e+002
9.646250e+002, 4.296469e+002
9.651071e+002, 4.293822e+002
9.655892e+002, 4.300917e+002
9.660714e+002, 4.311993e+002
9.665535e+002, 4.313304e+002
9.670356e+002, 4.304019e+002
9.675177e+002, 4.295141e+002
9.679998e+002, 4.293758e+002
9.684819e+002, 4.292888e+002
9.689641e+002, 4.287554e+002
9.694462e+002, 4.278865e+002
9.699283e+002, 4.275410e+002
9.704104e+002, 4.277657e+002
9.708925e+002, 4.281484e+002
9.713746e+002, 4.286138e+002
9.718568e+002, 4.290247e+002
9.723389e+002, 4.290394e+002
9.728210e+002, 4.288570e+002
9.733031e+002, 4.289074e+002
9.737852e+002, 4.296224e+002
9.742673e+002, 4.301870e+002
9.747495e+002, 4.302580e+002
9.752316e+002, 4.302735e+002
9.757137e+002, 4.308439e+002
9.761958e+002, 4.320194e+002
9.766779e+002, 4.323067e+002
9.771600e+002, 4.314938e+002
9.776422e+002, 4.309771e+002
9.781243e+002, 4.329194e+002
9.786064e+002, 4.352027e+002
9.790885e+002, 4.352165e+002
9.795706e+002, 4.327175e+002
9.800527e+002, 4.310079e+002
9.805349e+002, 4.312254e+002
9.810170e+002, 4.313714e+002
9.814991e+002, 4.306296e+002
9.819812e+002, 4.293556e+002
9.824633e+002, 4.287425e+002
9.829454e+002, 4.287373e+002
9.834276e+002, 4.290560e+002
9.839097e+002, 4.298141e+002
9.843918e+002, 4.305150e+002
9.848739e+002, 4.306642e+002
9.853560e+002, 4.305808e+002
9.858381e+002, 4.307762e+002
9.863203e+002, 4.314324e+002
9.868024e+002, 4.320766e+002
9.872845e+002, 4.327629e+002
9.877666e+002, 4.332686e+002
9.882487e+002, 4.332319e+002
9.887308e+002, 4.328592e+002
9.892130e+002, 4.327686e+002
9.896951e+002, 4.329956e+002
9.901772e+002, 4.329674e+002
9.906593e+002, 4.317497e+002
9.911414e+002, 4.307878e+002
9.916235e+002, 4.311164e+002
9.921057e+002, 4.324457e+002
9.925878e+002, 4.331247e+002
9.930699e+002, 4.330492e+002
9.935520e+002, 4.331099e+002
9.940341e+002, 4.337957e+002
9.945162e+002, 4.344841e+002
9.949984e+002, 4.339830e+002
9.954805e+002, 4.328858e+002
9.959626e+002, 4.323348e+002
9.964447e+002, 4.331935e+002
9.969268e+002, 4.337567e+002
9.974089e+002, 4.335598e+002
9.978911e+002, 4.332211e+002
9.983732e+002, 4.333991e+002
9.988553e+002, 4.340679e+002
9.993374e+002, 4.341972e+002
9.998195e+002, 4.337432e+002
1.000302e+003, 4.332551e+002
1.000784e+003, 4.329914e+002
1.001266e+003, 4.329913e+002
1.001748e+003, 4.334337e+002
1.002230e+003, 4.342498e+002
1.002712e+003, 4.347568e+002
1.003194e+003, 4.347654e+002
1.003676e+003, 4.347864e+002
1.004159e+003, 4.349919e+002
1.004641e+003, 4.352165e+002
1.005123e+003, 4.349551e+002
1.005605e+003, 4.344289e+002
1.006087e+003, 4.343770e+002
1.006569e+003, 4.352431e+002
1.007051e+003, 4.360084e+002
1.007533e+003, 4.360451e+002
1.008016e+003, 4.358571e+002
1.008498e+003, 4.359151e+002
1.008980e+003, 4.362786e+002
1.009462e+003, 4.366347e+002
1.009944e+003, 4.370065e+002
1.010426e+003, 4.372538e+002
1.010908e+003, 4.373586e+002
1.011390e+003, 4.372222e+002
1.011872e+003, 4.363009e+002
1.012355e+003, 4.349060e+002
1.012837e+003, 4.343847e+002
1.013319e+003, 4.359727e+002
1.013801e+003, 4.374749e+002
1.014283e+003, 4.385678e+002
1.014765e+003, 4.392029e+002
1.015247e+003, 4.389360e+002
1.015729e+003, 4.379737e+002
1.016211e+003, 4.381899e+002
1.016694e+003, 4.402374e+002
1.017176e+003, 4.419904e+002
1.017658e+003, 4.413010e+002
1.018140e+003, 4.398159e+002
1.018622e+003, 4.390278e+002
1.019104e+003, 4.391849e+002
1.019586e+003, 4.393345e+002
1.020068e+003, 4.395069e+002
1.020551e+003, 4.395891e+002
1.021033e+003, 4.394076e+002
1.021515e+003, 4.391710e+002
1.021997e+003, 4.394600e+002
1.022479e+003, 4.400954e+002
1.022961e+003, 4.405448e+002
1.023443e+003, 4.402458e+002
1.023925e+003, 4.401453e+002
1.024407e+003, 4.407465e+002
1.024890e+003, 4.415146e+002
1.025372e+003, 4.416621e+002
1.025854e+003, 4.411523e+002
1.026336e+003, 4.412640e+002
1.026818e+003, 4.421622e+002
1.027300e+003, 4.431714e+002
1.027782e+003, 4.438368e+002
1.028264e+003, 4.442302e+002
1.028746e+003, 4.442823e+002
1.029229e+003, 4.440000e+002
1.029711e+003, 4.441129e+002
1.030193e+003, 4.449509e+002
1.030675e+003, 4.455283e+002
1.031157e+003, 4.454173e+002
1.031639e+003, 4.449611e+002
1.032121e+003, 4.450698e+002
1.032603e+003, 4.455060e+002
1.033086e+003, 4.454603e+002
1.033568e+003, 4.442989e+002
1.034050e+003, 4.434512e+002
1.034532e+003, 4.440004e+002
1.035014e+003, 4.448476e+002
1.035496e+003, 4.449543e+002
1.035978e+003, 4.441551e+002
1.036460e+003, 4.438275e+002
1.036943e+003, 4.439956e+002
1.037425e+003, 4.443599e+002
1.037907e+003, 4.449816e+002
1.038389e+003, 4.454790e+002
1.038871e+003, 4.450827e+002
1.039353e+003, 4.441185e+002
1.039835e+003, 4.439707e+002
1.040317e+003, 4.457107e+002
1.040799e+003, 4.468916e+002
1.041281e+003, 4.470392e+002
1.041764e+003, 4.466512e+002
1.042246e+003, 4.463490e+002
1.042728e+003, 4.461786e+002
1.043210e+003, 4.464506e+002
1.043692e+003, 4.473178e+002
1.044174e+003, 4.477962e+002
1.044656e+003, 4.466420e+002
1.045138e+003, 4.455500e+002
1.045621e+003, 4.458888e+002
1.046103e+003, 4.474926e+002
1.046585e+003, 4.477817e+002
1.047067e+003, 4.466564e+002
1.047549e+003, 4.455609e+002
1.048031e+003, 4.450860e+002
1.048513e+003, 4.450543e+002
1.048995e+003, 4.455800e+002
1.049478e+003, 4.463260e+002
1.049960e+003, 4.467166e+002
1.050442e+003, 4.455453e+002
1.050924e+003, 4.458568e+002
1.051406e+003, 4.485071e+002
1.051888e+003, 4.511467e+002
1.052370e+003, 4.514841e+002
1.052852e+003, 4.500694e+002
1.053334e+003, 4.484972e+002
1.053817e+003, 4.469010e+002
1.054299e+003, 4.457371e+002
1.054781e+003, 4.452652e+002
1.055263e+003, 4.452958e+002
1.055745e+003, 4.462098e+002
1.056227e+003, 4.474142e+002
1.056709e+003, 4.473075e+002
1.057191e+003, 4.457891e+002
1.057673e+003, 4.449130e+002
1.058156e+003, 4.451933e+002
1.058638e+003, 4.458186e+002
1.059120e+003, 4.460889e+002
1.059602e+003, 4.461616e+002
1.060084e+003, 4.460917e+002
1.060566e+003, 4.457814e+002
1.061048e+003, 4.462254e+002
1.061530e+003, 4.479683e+002
1.062013e+003, 4.491933e+002
1.062495e+003, 4.487854e+002
1.062977e+003, 4.474661e+002
1.063459e+003, 4.469899e+002
1.063941e+003, 4.471154e+002
1.064423e+003, 4.471306e+002
1.064905e+003, 4.465643e+002
1.065387e+003, 4.461169e+002
1.065870e+003, 4.459309e+002
1.066352e+003, 4.460275e+002
1.066834e+003, 4.466609e+002
1.067316e+003, 4.478373e+002
1.067798e+003, 4.479518e+002
1.068280e+003, 4.469484e+002
1.068762e+003, 4.460329e+002
1.069244e+003, 4.462349e+002
1.069726e+003, 4.467459e+002
1.070208e+003, 4.469789e+002
1.070691e+003, 4.469597e+002
1.071173e+003, 4.469117e+002
1.071655e+003, 4.468058e+002
1.072137e+003, 4.467485e+002
1.072619e+003, 4.466924e+002
1.073101e+003, 4.468798e+002
1.073583e+003, 4.481647e+002
1.074065e+003, 4.496969e+002
1.074548e+003, 4.498907e+002
1.075030e+003, 4.482939e+002
1.075512e+003, 4.471033e+002
1.075994e+003, 4.472605e+002
1.076476e+003, 4.474503e+002
1.076958e+003, 4.470675e+002
1.077440e+003, 4.463575e+002
1.077922e+003, 4.464249e+002
1.078405e+003, 4.470637e+002
1.078887e+003, 4.472096e+002
1.079369e+003, 4.459886e+002
1.079851e+003, 4.450039e+002
1.080333e+003, 4.455156e+002
1.080815e+003, 4.465114e+002
1.081297e+003, 4.467796e+002
1.081779e+003, 4.460617e+002
1.082261e+003, 4.462882e+002
1.082744e+003, 4.475566e+002
1.083226e+003, 4.485375e+002
1.083708e+003, 4.480454e+002
1.084190e+003, 4.469457e+002
1.084672e+003, 4.457354e+002
1.085154e+003, 4.446640e+002
1.085636e+003, 4.445781e+002
1.086118e+003, 4.463962e+002
1.086601e+003, 4.474027e+002
1.087083e+003, 4.470712e+002
1.087565e+003, 4.463448e+002
1.088047e+003, 4.464459e+002
1.088529e+003, 4.470387e+002
1.089011e+003, 4.475381e+002
1.089493e+003, 4.478719e+002
1.089975e+003, 4.477450e+002
1.090458e+003, 4.462047e+002
1.090940e+003, 4.451663e+002
1.091422e+003, 4.455392e+002
1.091904e+003, 4.467816e+002
1.092386e+003, 4.471771e+002
1.092868e+003, 4.468622e+002
1.093350e+003, 4.467039e+002
1.093832e+003, 4.469968e+002
1.094314e+003, 4.473529e+002
1.094797e+003, 4.475709e+002
1.095279e+003, 4.476865e+002
1.095761e+003, 4.477993e+002
1.096243e+003, 4.479524e+002
1.096725e+003, 4.474492e+002
1.097207e+003, 4.462144e+002
1.097689e+003, 4.452343e+002
1.098171e+003, 4.451535e+002
1.098653e+003, 4.455146e+002
1.099136e+003, 4.459338e+002
1.099618e+003, 4.463683e+002
1.100100e+003, 4.467414e+002
1.100582e+003, 4.470655e+002
1.101064e+003, 4.472070e+002
1.101546e+003, 4.470317e+002
1.102028e+003, 4.469944e+002
1.102510e+003, 4.478034e+002
1.102993e+003, 4.489538e+002
1.103475e+003, 4.493035e+002
1.103957e+003, 4.489110e+002
1.104439e+003, 4.484287e+002
1.104921e+003, 4.478336e+002
1.105403e+003, 4.475948e+002
1.105885e+003, 4.479419e+002
1.106367e+003, 4.485682e+002
1.106849e+003, 4.490787e+002
1.107332e+003, 4.494173e+002
1.107814e+003, 4.490717e+002
1.108296e+003, 4.478926e+002
1.108778e+003, 4.470758e+002
1.109260e+003, 4.478911e+002
1.109742e+003, 4.488433e+002
1.110224e+003, 4.488134e+002
1.110706e+003, 4.480561e+002
1.111188e+003, 4.480879e+002
1.111671e+003, 4.489266e+002
1.112153e+003, 4.494496e+002
1.112635e+003, 4.490972e+002
1.113117e+003, 4.488215e+002
1.113599e+003, 4.500477e+002
1.114081e+003, 4.516199e+002
1.114563e+003, 4.519997e+002
1.115045e+003, 4.506621e+002
1.115528e+003, 4.502132e+002
1.116010e+003, 4.508687e+002
1.116492e+003, 4.514867e+002
1.116974e+003, 4.513832e+002
1.117456e+003, 4.508957e+002
1.117938e+003, 4.504123e+002
1.118420e+003, 4.499946e+002
1.118902e+003, 4.497684e+002
1.119385e+003, 4.501004e+002
1.119867e+003, 4.500911e+002
1.120349e+003, 4.495053e+002
1.120831e+003, 4.489658e+002
1.121313e+003, 4.493355e+002
1.121795e+003, 4.501503e+002
1.122277e+003, 4.497692e+002
1.122759e+003, 4.483962e+002
1.123241e+003, 4.475070e+002
1.123724e+003, 4.482499e+002
1.124206e+003, 4.489986e+002
1.124688e+003, 4.492783e+002
1.125170e+003, 4.493090e+002
1.125652e+003, 4.493493e+002
1.126134e+003, 4.494231e+002
1.126616e+003, 4.497968e+002
1.127098e+003, 4.505107e+002
1.127580e+003, 4.511352e+002
1.128063e+003, 4.513587e+002
1.128545e+003, 4.514259e+002
1.129027e+003, 4.515208e+002
1.129509e+003, 4.515906e+002
1.129991e+003, 4.512656e+002
1.130473e+003, 4.505312e+002
1.130955e+003, 4.503632e+002
1.131437e+003, 4.511713e+002
1.131920e+003, 4.519836e+002
1.132402e+003, 4.517239e+002
1.132884e+003, 4.511277e+002
1.133366e+003, 4.509679e+002
1.133848e+003, 4.513410e+002
1.134330e+003, 4.513877e+002
1.134812e+003, 4.509989e+002
1.135294e+003, 4.508901e+002
1.135776e+003, 4.514962e+002
1.136259e+003, 4.523243e+002
1.136741e+003, 4.526685e+002
1.137223e+003, 4.527996e+002
1.137705e+003, 4.532133e+002
1.138187e+003, 4.545299e+002
1.138669e+003, 4.547087e+002
1.139151e+003, 4.532391e+002
1.139633e+003, 4.519125e+002
1.140115e+003, 4.521273e+002
1.140598e+003, 4.532198e+002
1.141080e+003, 4.539656e+002
1.141562e+003, 4.544095e+002
1.142044e+003, 4.546969e+002
1.142526e+003, 4.547819e+002
1.143008e+003, 4.548405e+002
1.143490e+003, 4.548600e+002
1.143972e+003, 4.549287e+002
1.144455e+003, 4.552197e+002
1.144937e+003, 4.556285e+002
1.145419e+003, 4.557569e+002
1.145901e+003, 4.556277e+002
1.146383e+003, 4.555199e+002
1.146865e+003, 4.559258e+002
1.147347e+003, 4.558890e+002
1.147829e+003, 4.548414e+002
1.148312e+003, 4.535060e+002
1.148794e+003, 4.529032e+002
1.149276e+003, 4.530108e+002
1.149758e+003, 4.539678e+002
1.150240e+003, 4.558019e+002
1.150722e+003, 4.572973e+002
1.151204e+003, 4.575411e+002
1.151686e+003, 4.573343e+002
1.152168e+003, 4.568519e+002
1.152651e+003, 4.563456e+002
1.153133e+003, 4.567716e+002
1.153615e+003, 4.580641e+002
1.154097e+003, 4.585282e+002
1.154579e+003, 4.575877e+002
1.155061e+003, 4.567568e+002
1.155543e+003, 4.576732e+002
1.156025e+003, 4.588990e+002
1.156507e+003, 4.590743e+002
1.156990e+003, 4.583196e+002
1.157472e+003, 4.580060e+002
1.157954e+003, 4.581554e+002
1.158436e+003, 4.584347e+002
1.158918e+003, 4.587208e+002
1.159400e+003, 4.591212e+002
1.159882e+003, 4.600110e+002
1.160364e+003, 4.609270e+002
1.160847e+003, 4.612279e+002
1.161329e+003, 4.607303e+002
1.161811e+003, 4.606336e+002
1.162293e+003, 4.610166e+002
1.162775e+003, 4.612903e+002
1.163257e+003, 4.609957e+002
1.163739e+003, 4.606207e+002
1.164221e+003, 4.610359e+002
1.164703e+003, 4.617134e+002
1.165186e+003, 4.616992e+002
1.165668e+003, 4.601069e+002
1.166150e+003, 4.596128e+002
1.166632e+003, 4.605093e+002
1.167114e+003, 4.614284e+002
1.167596e+003, 4.610970e+002
1.168078e+003, 4.603322e+002
1.168560e+003, 4.606378e+002
1.169042e+003, 4.616144e+002
1.169525e+003, 4.621782e+002
1.170007e+003, 4.616849e+002
1.170489e+003, 4.613751e+002
1.170971e+003, 4.613773e+002
1.171453e+003, 4.614040e+002
1.171935e+003, 4.611202e+002
1.172417e+003, 4.606928e+002
1.172899e+003, 4.603192e+002
1.173382e+003, 4.600730e+002
1.173864e+003, 4.602499e+002
1.174346e+003, 4.612581e+002
1.174828e+003, 4.623099e+002
1.175310e+003, 4.633914e+002
1.175792e+003, 4.643179e+002
1.176274e+003, 4.649572e+002
1.176756e+003, 4.652380e+002
1.177239e+003, 4.647912e+002
1.177721e+003, 4.636648e+002
1.178203e+003, 4.628955e+002
1.178685e+003, 4.629240e+002
1.179167e+003, 4.634223e+002
1.179649e+003, 4.645971e+002
1.180131e+003, 4.658139e+002
1.180613e+003, 4.657085e+002
1.181095e+003, 4.647333e+002
1.181578e+003, 4.641455e+002
1.182060e+003, 4.641294e+002
1.182542e+003, 4.645504e+002
1.183024e+003, 4.660086e+002
1.183506e+003, 4.670934e+002
1.183988e+003, 4.672055e+002
1.184470e+003, 4.667209e+002
1.184952e+003, 4.665461e+002
1.185434e+003, 4.666037e+002
1.185917e+003, 4.665814e+002
1.186399e+003, 4.663667e+002
1.186881e+003, 4.663018e+002
1.187363e+003, 4.665781e+002
1.187845e+003, 4.670416e+002
1.188327e+003, 4.677166e+002
1.188809e+003, 4.684674e+002
1.189291e+003, 4.687082e+002
1.189774e+003, 4.685432e+002
1.190256e+003, 4.685050e+002
1.190738e+003, 4.688503e+002
1.191220e+003, 4.690773e+002
1.191702e+003, 4.686530e+002
1.192184e+003, 4.683170e+002
1.192666e+003, 4.686288e+002
1.193148e+003, 4.694446e+002
1.193630e+003, 4.697683e+002
1.194113e+003, 4.696757e+002
1.194595e+003, 4.695976e+002
1.195077e+003, 4.696689e+002
1.195559e+003, 4.698787e+002
1.196041e+003, 4.705705e+002
1.196523e+003, 4.710874e+002
1.197005e+003, 4.707403e+002
1.197487e+003, 4.696225e+002
1.197969e+003, 4.694530e+002
1.198452e+003, 4.701131e+002
1.198934e+003, 4.706778e+002
1.199416e+003, 4.705316e+002
1.199898e+003, 4.703459e+002
1.200380e+003, 4.704750e+002
1.200862e+003, 4.706938e+002
1.201344e+003, 4.707178e+002
1.201826e+003, 4.705488e+002
1.202309e+003, 4.708031e+002
1.202791e+003, 4.714641e+002
1.203273e+003, 4.722667e+002
1.203755e+003, 4.733387e+002
1.204237e+003, 4.741995e+002
1.204719e+003, 4.745312e+002
1.205201e+003, 4.745385e+002
1.205683e+003, 4.743540e+002
1.206166e+003, 4.739860e+002
1.206648e+003, 4.740970e+002
1.207130e+003, 4.746589e+002
1.207612e+003, 4.748226e+002
1.208094e+003, 4.729845e+002
1.208576e+003, 4.717490e+002
1.209058e+003, 4.734244e+002
1.209540e+003, 4.760849e+002
1.210022e+003, 4.769847e+002
1.210505e+003, 4.761945e+002
1.210987e+003, 4.755749e+002
1.211469e+003, 4.752585e+002
1.211951e+003, 4.750342e+002
1.212433e+003, 4.748181e+002
1.212915e+003, 4.745900e+002
1.213397e+003, 4.741073e+002
1.213879e+003, 4.737373e+002
1.214361e+003, 4.743922e+002
1.214844e+003, 4.759626e+002
1.215326e+003, 4.765505e+002
1.215808e+003, 4.759319e+002
1.216290e+003, 4.753967e+002
1.216772e+003, 4.761367e+002
1.217254e+003, 4.768577e+002
1.217736e+003, 4.766041e+002
1.218218e+003, 4.759687e+002
1.218701e+003, 4.764410e+002
1.219183e+003, 4.778616e+002
1.219665e+003, 4.782724e+002
1.220147e+003, 4.773258e+002
1.220629e+003, 4.763839e+002
1.221111e+003, 4.760891e+002
1.221593e+003, 4.763257e+002
1.222075e+003, 4.772707e+002
1.222557e+003, 4.785368e+002
1.223040e+003, 4.791803e+002
1.223522e+003, 4.792481e+002
1.224004e+003, 4.789809e+002
1.224486e+003, 4.783761e+002
1.224968e+003, 4.780108e+002
1.225450e+003, 4.786482e+002
1.225932e+003, 4.791712e+002
1.226414e+003, 4.788705e+002
1.226896e+003, 4.781239e+002
1.227379e+003, 4.781449e+002
1.227861e+003, 4.787900e+002
1.228343e+003, 4.792757e+002
1.228825e+003, 4.794161e+002
1.229307e+003, 4.794809e+002
1.229789e+003, 4.797005e+002
1.230271e+003, 4.797503e+002
1.230753e+003, 4.792748e+002
1.231236e+003, 4.786177e+002
1.231718e+003, 4.790973e+002
1.232200e+003, 4.804395e+002
1.232682e+003, 4.816287e+002
1.233164e+003, 4.824934e+002
1.233646e+003, 4.827640e+002
1.234128e+003, 4.817473e+002
1.234610e+003, 4.807114e+002
1.235093e+003, 4.802800e+002
1.235575e+003, 4.802522e+002
1.236057e+003, 4.799153e+002
1.236539e+003, 4.794324e+002
1.237021e+003, 4.794248e+002
1.237503e+003, 4.802601e+002
1.237985e+003, 4.808360e+002
1.238467e+003, 4.803365e+002
1.238949e+003, 4.799994e+002
1.239432e+003, 4.804803e+002
1.239914e+003, 4.814326e+002
1.240396e+003, 4.816692e+002
1.240878e+003, 4.814994e+002
1.241360e+003, 4.818998e+002
1.241842e+003, 4.835726e+002
1.242324e+003, 4.844113e+002
1.242806e+003, 4.834817e+002
1.243288e+003, 4.824450e+002
1.243771e+003, 4.820683e+002
1.244253e+003, 4.821876e+002
1.244735e+003, 4.825559e+002
1.245217e+003, 4.830486e+002
1.245699e+003, 4.833206e+002
1.246181e+003, 4.830375e+002
1.246663e+003, 4.833230e+002
1.247145e+003, 4.847335e+002
1.247628e+003, 4.856950e+002
1.248110e+003, 4.849928e+002
1.248592e+003, 4.836515e+002
1.249074e+003, 4.839267e+002
1.249556e+003, 4.851895e+002
1.250038e+003, 4.862121e+002
1.250520e+003, 4.864824e+002
1.251002e+003, 4.870646e+002
1.251484e+003, 4.881590e+002
1.251967e+003, 4.890735e+002
1.252449e+003, 4.894047e+002
1.252931e+003, 4.893073e+002
1.253413e+003, 4.888534e+002
1.253895e+003, 4.882128e+002
1.254377e+003, 4.876866e+002
1.254859e+003, 4.873270e+002
1.255341e+003, 4.871222e+002
1.255823e+003, 4.870926e+002
1.256306e+003, 4.871039e+002
1.256788e+003, 4.870333e+002
1.257270e+003, 4.870132e+002
1.257752e+003, 4.873617e+002
1.258234e+003, 4.878130e+002
1.258716e+003, 4.878911e+002
1.259198e+003, 4.874317e+002
1.259680e+003, 4.872280e+002
1.260163e+003, 4.873070e+002
1.260645e+003, 4.874410e+002
1.261127e+003, 4.874235e+002
1.261609e+003, 4.875082e+002
1.262091e+003, 4.881316e+002
1.262573e+003, 4.888891e+002
1.263055e+003, 4.891923e+002
1.263537e+003, 4.889550e+002
1.264020e+003, 4.887794e+002
1.264502e+003, 4.886632e+002
1.264984e+003, 4.888440e+002
1.265466e+003, 4.896499e+002
1.265948e+003, 4.905417e+002
1.266430e+003, 4.911718e+002
1.266912e+003, 4.916831e+002
1.267394e+003, 4.924312e+002
1.267876e+003, 4.934237e+002
1.268359e+003, 4.926638e+002
1.268841e+003, 4.904203e+002
1.269323e+003, 4.891300e+002
1.269805e+003, 4.912038e+002
1.270287e+003, 4.930654e+002
1.270769e+003, 4.929254e+002
1.271251e+003, 4.920528e+002
1.271733e+003, 4.911484e+002
1.272215e+003, 4.903180e+002
1.272698e+003, 4.908312e+002
1.273180e+003, 4.923410e+002
1.273662e+003, 4.932044e+002
1.274144e+003, 4.917994e+002
1.274626e+003, 4.909708e+002
1.275108e+003, 4.917406e+002
1.275590e+003, 4.925812e+002
1.276072e+003, 4.919195e+002
1.276555e+003, 4.904391e+002
1.277037e+003, 4.906588e+002
1.277519e+003, 4.920850e+002
1.278001e+003, 4.932757e+002
1.278483e+003, 4.936624e+002
1.278965e+003, 4.937299e+002
1.279447e+003, 4.934088e+002
1.279929e+003, 4.930483e+002
1.280411e+003, 4.927863e+002
1.280894e+003, 4.927400e+002
1.281376e+003, 4.934898e+002
1.281858e+003, 4.945692e+002
1.282340e+003, 4.948939e+002
1.282822e+003, 4.934340e+002
1.283304e+003, 4.929897e+002
1.283786e+003, 4.937359e+002
1.284268e+003, 4.946548e+002
1.284750e+003, 4.952455e+002
1.285233e+003, 4.954747e+002
1.285715e+003, 4.948055e+002
1.286197e+003, 4.939357e+002
1.286679e+003, 4.942219e+002
1.287161e+003, 4.961333e+002
1.287643e+003, 4.972915e+002
1.288125e+003, 4.976745e+002
1.288607e+003, 4.977576e+002
1.289090e+003, 4.977337e+002
1.289572e+003, 4.976200e+002
1.290054e+003, 4.972809e+002
1.290536e+003, 4.969470e+002
1.291018e+003, 4.969410e+002
1.291500e+003, 4.972816e+002
1.291982e+003, 4.972326e+002
1.292464e+003, 4.968626e+002
1.292947e+003, 4.967985e+002
1.293429e+003, 4.978055e+002
1.293911e+003, 4.985981e+002
1.294393e+003, 4.984413e+002
1.294875e+003, 4.980244e+002
1.295357e+003, 4.977606e+002
1.295839e+003, 4.976530e+002
1.296321e+003, 4.978290e+002
1.296803e+003, 4.982444e+002
1.297286e+003, 4.987103e+002
1.297768e+003, 4.995791e+002
1.298250e+003, 4.996641e+002
1.298732e+003, 4.983466e+002
1.299214e+003, 4.972272e+002
1.299696e+003, 4.976153e+002
1.300178e+003, 4.988053e+002
1.300660e+003, 4.996674e+002
##END=



